{
    "28": {
        "user_id": "pro|60a59d92b7363e85a2945dde",
        "core_initial_visit": "2025-04-11 13:24:24.628187+00:00",
        "core_number_of_visits": 1,
        "core_last_updated": "2025-04-11 13:59:39.160875+00:00",
        "core_task_id": "PS | TS Experiment",
        "jspsych_data": [
            {
                "rt": 516994,
                "trial_type": "instructions",
                "trial_index": 1,
                "time_elapsed": 517002,
                "view_history": [
                    {
                        "page_index": 0,
                        "viewing_time": 471939
                    },
                    {
                        "page_index": 1,
                        "viewing_time": 45055
                    }
                ],
                "plugin_version": "2.1.0",
                "resume_trial_index": 1,
                "experiment_has_been_resumed": false,
                "experiment_definition_version": "v1.0.0"
            },
            {
                "rt": 45326,
                "response": 0,
                "stimulus": "<p>This study requires your informed consent before starting. Please click to review important information pertaining to your participation.</p>\n            <embed type=\"application/pdf\" src=\"/static/assets/doc/informedConsent.pdf\" height=\"700\" style=\"width: 100%; height: 100%; aspect-ratio: 3 / 2\"></embed>\n            <p>Once you have reviewed the document, indicate your choice below. If you do not consent, you will be redirected to prolific to return your submission.</p>",
                "trial_type": "html-button-response",
                "trial_index": 2,
                "time_elapsed": 563281,
                "plugin_version": "2.1.0",
                "resume_trial_index": 2,
                "experiment_has_been_resumed": false,
                "experiment_definition_version": "v1.0.0"
            },
            {
                "rt": 20656,
                "trial_type": "instructions",
                "trial_index": 3,
                "time_elapsed": 584265,
                "view_history": [
                    {
                        "page_index": 0,
                        "viewing_time": 20656
                    }
                ],
                "plugin_version": "2.1.0",
                "resume_trial_index": 3,
                "experiment_has_been_resumed": false,
                "experiment_definition_version": "v1.0.0"
            },
            {
                "rt": 49793,
                "response": {
                    "age": "26",
                    "gender": "Woman (including Trans Female/Trans Woman)",
                    "country": "South Africa",
                    "language": [
                        "English"
                    ],
                    "tinnitus": "No",
                    "hearing_loss": "No",
                    "headphone_style": "In-ear"
                },
                "trial_type": "survey",
                "invalid_age": false,
                "trial_index": 4,
                "time_elapsed": 634560,
                "plugin_version": "2.1.0",
                "failed_questions": [],
                "resume_trial_index": 4,
                "experiment_has_been_resumed": false,
                "experiment_definition_version": "v1.0.0"
            },
            {
                "success": true,
                "timeout": false,
                "trial_type": "preload",
                "trial_index": 5,
                "failed_audio": [],
                "failed_video": [],
                "time_elapsed": 636977,
                "failed_images": [],
                "plugin_version": "2.1.0",
                "resume_trial_index": 5,
                "experiment_has_been_resumed": false,
                "experiment_definition_version": "v1.0.0"
            },
            {
                "rt": 13543,
                "trial_type": "instructions",
                "trial_index": 6,
                "time_elapsed": 650900,
                "view_history": [
                    {
                        "page_index": 0,
                        "viewing_time": 13543
                    }
                ],
                "plugin_version": "2.1.0",
                "resume_trial_index": 6,
                "experiment_has_been_resumed": false,
                "experiment_definition_version": "v1.0.0"
            },
            {
                "rt": 25423,
                "score": 2,
                "response": " ",
                "stimulus": "<h2>You <span style=\"color: var(--error);\">did not pass</span> the headphone check.</h2>\n                        <p>Please retry the test using some other headphones if they are available.</p>\n                        <p>Press [SPACE] to retry the headphone check.</p>",
                "task_type": "screening_summary",
                "trial_type": "html-keyboard-response",
                "do_not_save": false,
                "trial_index": 17,
                "time_elapsed": 805479,
                "plugin_version": "2.1.0",
                "resume_trial_index": 15,
                "screening_completed": false,
                "total_screening_trials": 6,
                "experiment_has_been_resumed": false,
                "experiment_definition_version": "v1.0.0"
            },
            {
                "rt": 5459,
                "score": 6,
                "response": " ",
                "stimulus": "<h2>Contratulations! You <span style=\"color: var(--success);\">passed</span> the headphone check.</h2>\n                        <p> Press [SPACE] to continue to the experiment. </p>",
                "task_type": "screening_summary",
                "trial_type": "html-keyboard-response",
                "do_not_save": false,
                "trial_index": 25,
                "time_elapsed": 866599,
                "plugin_version": "2.1.0",
                "resume_trial_index": 22,
                "screening_completed": true,
                "total_screening_trials": 12,
                "experiment_has_been_resumed": false,
                "experiment_definition_version": "v1.0.0"
            },
            {
                "rt": 4747,
                "trial_type": "instructions",
                "trial_index": 34,
                "time_elapsed": 871622,
                "view_history": [
                    {
                        "page_index": 0,
                        "viewing_time": 4747
                    }
                ],
                "plugin_version": "2.1.0",
                "resume_trial_index": 32,
                "experiment_has_been_resumed": false,
                "experiment_definition_version": "v1.0.0"
            },
            {
                "success": true,
                "timeout": false,
                "trial_type": "preload",
                "trial_index": 35,
                "failed_audio": [],
                "failed_video": [],
                "time_elapsed": 882585,
                "failed_images": [],
                "plugin_version": "2.1.0",
                "resume_trial_index": 33,
                "experiment_has_been_resumed": false,
                "experiment_definition_version": "v1.0.0"
            },
            {
                "rt": 54098,
                "trial_type": "instructions",
                "trial_index": 36,
                "time_elapsed": 936913,
                "view_history": [
                    {
                        "page_index": 0,
                        "viewing_time": 54098
                    }
                ],
                "plugin_version": "2.1.0",
                "resume_trial_index": 34,
                "experiment_has_been_resumed": false,
                "experiment_definition_version": "v1.0.0"
            },
            {
                "rt": 152534,
                "type": "ps0",
                "anchor": "static/assets/wav/training/ps/anchor.wav",
                "response": [
                    "6",
                    "70",
                    "5",
                    "0"
                ],
                "stimulus": [
                    "static/assets/wav/training/ps/librosaps.wav",
                    "static/assets/wav/training/ps/anchor.wav",
                    "static/assets/wav/training/ps/pvps.wav",
                    "static/assets/wav/training/ps/nmps.wav",
                    "static/assets/wav/training/ps/ref.wav"
                ],
                "ref_index": null,
                "reference": "static/assets/wav/training/ps/ref.wav",
                "task_type": "mushra_training",
                "trial_type": "multiple-stimuli-hidden-reference-anchor",
                "trial_index": 37,
                "time_elapsed": 1167461,
                "trial_number": 0,
                "plugin_version": "2.1.0",
                "resume_trial_index": 35,
                "experiment_has_been_resumed": false,
                "experiment_definition_version": "v1.0.0"
            },
            {
                "rt": 96494,
                "type": "tsm1",
                "anchor": "static/assets/wav/training/tsm/anchor.wav",
                "response": [
                    "40",
                    "4",
                    "9",
                    "0",
                    "49"
                ],
                "stimulus": [
                    "static/assets/wav/training/tsm/pv.wav",
                    "static/assets/wav/training/tsm/anchor.wav",
                    "static/assets/wav/training/tsm/nm.wav",
                    "static/assets/wav/training/tsm/tsmnet.wav",
                    "static/assets/wav/training/tsm/hps.wav",
                    "static/assets/wav/training/tsm/ref.wav"
                ],
                "ref_index": null,
                "reference": "static/assets/wav/training/tsm/ref.wav",
                "task_type": "mushra_training",
                "trial_type": "multiple-stimuli-hidden-reference-anchor",
                "trial_index": 38,
                "time_elapsed": 1275064,
                "trial_number": 1,
                "plugin_version": "2.1.0",
                "resume_trial_index": 36,
                "experiment_has_been_resumed": false,
                "experiment_definition_version": "v1.0.0"
            },
            {
                "rt": 39165,
                "trial_type": "instructions",
                "trial_index": 39,
                "time_elapsed": 1314558,
                "view_history": [
                    {
                        "page_index": 0,
                        "viewing_time": 39165
                    }
                ],
                "plugin_version": "2.1.0",
                "resume_trial_index": 37,
                "experiment_has_been_resumed": false,
                "experiment_definition_version": "v1.0.0"
            },
            {
                "rt": 135726,
                "type": "ps7",
                "anchor": "static/assets/wav/tests/ps7/anchor.wav",
                "response": [
                    "0",
                    "27",
                    "7",
                    "62"
                ],
                "stimulus": [
                    "static/assets/wav/tests/ps7/pvps.wav",
                    "static/assets/wav/tests/ps7/nmps.wav",
                    "static/assets/wav/tests/ps7/librosaps.wav",
                    "static/assets/wav/tests/ps7/anchor.wav",
                    "static/assets/wav/tests/ps7/ref.wav"
                ],
                "ref_index": null,
                "reference": "static/assets/wav/tests/ps7/ref.wav",
                "task_type": "mushra_main_experiment",
                "trial_type": "multiple-stimuli-hidden-reference-anchor",
                "trial_index": 40,
                "time_elapsed": 1455872,
                "trial_number": "7",
                "plugin_version": "2.1.0",
                "resume_trial_index": 38,
                "experiment_has_been_resumed": false,
                "experiment_definition_version": "v1.0.0"
            },
            {
                "rt": 65236,
                "type": "ps3",
                "anchor": "static/assets/wav/tests/ps3/anchor.wav",
                "response": [
                    "5",
                    "23",
                    "10",
                    "56"
                ],
                "stimulus": [
                    "static/assets/wav/tests/ps3/nmps.wav",
                    "static/assets/wav/tests/ps3/anchor.wav",
                    "static/assets/wav/tests/ps3/librosaps.wav",
                    "static/assets/wav/tests/ps3/pvps.wav",
                    "static/assets/wav/tests/ps3/ref.wav"
                ],
                "ref_index": null,
                "reference": "static/assets/wav/tests/ps3/ref.wav",
                "task_type": "mushra_main_experiment",
                "trial_type": "multiple-stimuli-hidden-reference-anchor",
                "trial_index": 41,
                "time_elapsed": 1526460,
                "trial_number": "3",
                "plugin_version": "2.1.0",
                "resume_trial_index": 39,
                "experiment_has_been_resumed": false,
                "experiment_definition_version": "v1.0.0"
            },
            {
                "rt": 63033,
                "type": "ps-7",
                "anchor": "static/assets/wav/tests/ps-7/anchor.wav",
                "response": [
                    "2",
                    "10",
                    "3",
                    "0"
                ],
                "stimulus": [
                    "static/assets/wav/tests/ps-7/librosaps.wav",
                    "static/assets/wav/tests/ps-7/anchor.wav",
                    "static/assets/wav/tests/ps-7/pvps.wav",
                    "static/assets/wav/tests/ps-7/nmps.wav",
                    "static/assets/wav/tests/ps-7/ref.wav"
                ],
                "ref_index": null,
                "reference": "static/assets/wav/tests/ps-7/ref.wav",
                "task_type": "mushra_main_experiment",
                "trial_type": "multiple-stimuli-hidden-reference-anchor",
                "trial_index": 42,
                "time_elapsed": 1595993,
                "trial_number": "-7",
                "plugin_version": "2.1.0",
                "resume_trial_index": 40,
                "experiment_has_been_resumed": false,
                "experiment_definition_version": "v1.0.0"
            },
            {
                "rt": 56985,
                "type": "ps-1",
                "anchor": "static/assets/wav/tests/ps-1/anchor.wav",
                "response": [
                    "61",
                    "70",
                    "33",
                    "44"
                ],
                "stimulus": [
                    "static/assets/wav/tests/ps-1/anchor.wav",
                    "static/assets/wav/tests/ps-1/pvps.wav",
                    "static/assets/wav/tests/ps-1/nmps.wav",
                    "static/assets/wav/tests/ps-1/librosaps.wav",
                    "static/assets/wav/tests/ps-1/ref.wav"
                ],
                "ref_index": null,
                "reference": "static/assets/wav/tests/ps-1/ref.wav",
                "task_type": "mushra_main_experiment",
                "trial_type": "multiple-stimuli-hidden-reference-anchor",
                "trial_index": 43,
                "time_elapsed": 1661551,
                "trial_number": "-1",
                "plugin_version": "2.1.0",
                "resume_trial_index": 41,
                "experiment_has_been_resumed": false,
                "experiment_definition_version": "v1.0.0"
            },
            {
                "rt": 58404,
                "type": "ps1",
                "anchor": "static/assets/wav/tests/ps1/anchor.wav",
                "response": [
                    "65",
                    "93",
                    "43",
                    "35"
                ],
                "stimulus": [
                    "static/assets/wav/tests/ps1/anchor.wav",
                    "static/assets/wav/tests/ps1/pvps.wav",
                    "static/assets/wav/tests/ps1/librosaps.wav",
                    "static/assets/wav/tests/ps1/nmps.wav",
                    "static/assets/wav/tests/ps1/ref.wav"
                ],
                "ref_index": null,
                "reference": "static/assets/wav/tests/ps1/ref.wav",
                "task_type": "mushra_main_experiment",
                "trial_type": "multiple-stimuli-hidden-reference-anchor",
                "trial_index": 44,
                "time_elapsed": 1722006,
                "trial_number": "1",
                "plugin_version": "2.1.0",
                "resume_trial_index": 42,
                "experiment_has_been_resumed": false,
                "experiment_definition_version": "v1.0.0"
            },
            {
                "rt": 58233,
                "type": "tsm1.35",
                "anchor": "static/assets/wav/tests/tsm1.35/anchor.wav",
                "response": [
                    "56",
                    "57",
                    "35",
                    "49",
                    "75"
                ],
                "stimulus": [
                    "static/assets/wav/tests/tsm1.35/hps.wav",
                    "static/assets/wav/tests/tsm1.35/pv.wav",
                    "static/assets/wav/tests/tsm1.35/tsmnet.wav",
                    "static/assets/wav/tests/tsm1.35/nm.wav",
                    "static/assets/wav/tests/tsm1.35/anchor.wav",
                    "static/assets/wav/tests/tsm1.35/ref.wav"
                ],
                "ref_index": null,
                "reference": "static/assets/wav/tests/tsm1.35/ref.wav",
                "task_type": "mushra_main_experiment",
                "trial_type": "multiple-stimuli-hidden-reference-anchor",
                "trial_index": 45,
                "time_elapsed": 1782272,
                "trial_number": "1.35",
                "plugin_version": "2.1.0",
                "resume_trial_index": 43,
                "experiment_has_been_resumed": false,
                "experiment_definition_version": "v1.0.0"
            },
            {
                "rt": 56126,
                "type": "tsm1.5",
                "anchor": "static/assets/wav/tests/tsm1.5/anchor.wav",
                "response": [
                    "8",
                    "13",
                    "4",
                    "1",
                    "0"
                ],
                "stimulus": [
                    "static/assets/wav/tests/tsm1.5/pv.wav",
                    "static/assets/wav/tests/tsm1.5/hps.wav",
                    "static/assets/wav/tests/tsm1.5/anchor.wav",
                    "static/assets/wav/tests/tsm1.5/nm.wav",
                    "static/assets/wav/tests/tsm1.5/tsmnet.wav",
                    "static/assets/wav/tests/tsm1.5/ref.wav"
                ],
                "ref_index": null,
                "reference": "static/assets/wav/tests/tsm1.5/ref.wav",
                "task_type": "mushra_main_experiment",
                "trial_type": "multiple-stimuli-hidden-reference-anchor",
                "trial_index": 46,
                "time_elapsed": 1840740,
                "trial_number": "1.5",
                "plugin_version": "2.1.0",
                "resume_trial_index": 44,
                "experiment_has_been_resumed": false,
                "experiment_definition_version": "v1.0.0"
            },
            {
                "rt": 80494,
                "type": "tsm0.85",
                "anchor": "static/assets/wav/tests/tsm0.85/anchor.wav",
                "response": [
                    "84",
                    "97",
                    "74",
                    "67",
                    "33"
                ],
                "stimulus": [
                    "static/assets/wav/tests/tsm0.85/anchor.wav",
                    "static/assets/wav/tests/tsm0.85/pv.wav",
                    "static/assets/wav/tests/tsm0.85/hps.wav",
                    "static/assets/wav/tests/tsm0.85/nm.wav",
                    "static/assets/wav/tests/tsm0.85/tsmnet.wav",
                    "static/assets/wav/tests/tsm0.85/ref.wav"
                ],
                "ref_index": null,
                "reference": "static/assets/wav/tests/tsm0.85/ref.wav",
                "task_type": "mushra_main_experiment",
                "trial_type": "multiple-stimuli-hidden-reference-anchor",
                "trial_index": 47,
                "time_elapsed": 1927086,
                "trial_number": "0.85",
                "plugin_version": "2.1.0",
                "resume_trial_index": 45,
                "experiment_has_been_resumed": false,
                "experiment_definition_version": "v1.0.0"
            },
            {
                "rt": 57636,
                "type": "tsm1.25",
                "anchor": "static/assets/wav/tests/tsm1.25/anchor.wav",
                "response": [
                    "39",
                    "2",
                    "27",
                    "35",
                    "62"
                ],
                "stimulus": [
                    "static/assets/wav/tests/tsm1.25/nm.wav",
                    "static/assets/wav/tests/tsm1.25/tsmnet.wav",
                    "static/assets/wav/tests/tsm1.25/anchor.wav",
                    "static/assets/wav/tests/tsm1.25/hps.wav",
                    "static/assets/wav/tests/tsm1.25/pv.wav",
                    "static/assets/wav/tests/tsm1.25/ref.wav"
                ],
                "ref_index": null,
                "reference": "static/assets/wav/tests/tsm1.25/ref.wav",
                "task_type": "mushra_main_experiment",
                "trial_type": "multiple-stimuli-hidden-reference-anchor",
                "trial_index": 48,
                "time_elapsed": 1987327,
                "trial_number": "1.25",
                "plugin_version": "2.1.0",
                "resume_trial_index": 46,
                "experiment_has_been_resumed": false,
                "experiment_definition_version": "v1.0.0"
            },
            {
                "rt": 104724,
                "type": "tsm0.75",
                "anchor": "static/assets/wav/tests/tsm0.75/anchor.wav",
                "response": [
                    "37",
                    "67",
                    "73",
                    "12",
                    "94"
                ],
                "stimulus": [
                    "static/assets/wav/tests/tsm0.75/nm.wav",
                    "static/assets/wav/tests/tsm0.75/anchor.wav",
                    "static/assets/wav/tests/tsm0.75/hps.wav",
                    "static/assets/wav/tests/tsm0.75/tsmnet.wav",
                    "static/assets/wav/tests/tsm0.75/pv.wav",
                    "static/assets/wav/tests/tsm0.75/ref.wav"
                ],
                "ref_index": null,
                "reference": "static/assets/wav/tests/tsm0.75/ref.wav",
                "task_type": "mushra_main_experiment",
                "trial_type": "multiple-stimuli-hidden-reference-anchor",
                "trial_index": 49,
                "time_elapsed": 2109791,
                "trial_number": "0.75",
                "plugin_version": "2.1.0",
                "resume_trial_index": 47,
                "experiment_has_been_resumed": false,
                "experiment_definition_version": "v1.0.0"
            }
        ],
        "jspsych_interaction_data": [],
        "jspsych_resume_trial_index": 47,
        "jspsych_max_timeline_length": 47,
        "jspsych_randomization_seed": "0.833271355175781",
        "jspsych_experiment_complete": true
    },
    "34": {
        "user_id": "pro|60a0dfc6f9936b0d30dfea15",
        "core_initial_visit": "2025-04-11 14:34:59.525973+00:00",
        "core_number_of_visits": 2,
        "core_last_updated": "2025-04-11 15:04:19.344021+00:00",
        "core_task_id": "PS | TS Experiment",
        "jspsych_data": [
            {
                "rt": 676057,
                "trial_type": "instructions",
                "trial_index": 1,
                "time_elapsed": 676061,
                "view_history": [
                    {
                        "page_index": 0,
                        "viewing_time": 667148
                    },
                    {
                        "page_index": 1,
                        "viewing_time": 8909
                    }
                ],
                "plugin_version": "2.1.0",
                "resume_trial_index": 1,
                "experiment_has_been_resumed": false,
                "experiment_definition_version": "v1.0.0"
            },
            {
                "rt": 4111,
                "response": 0,
                "stimulus": "<p>This study requires your informed consent before starting. Please click to review important information pertaining to your participation.</p>\n            <embed type=\"application/pdf\" src=\"/static/assets/doc/informedConsent.pdf\" height=\"700\" style=\"width: 100%; height: 100%; aspect-ratio: 3 / 2\"></embed>\n            <p>Once you have reviewed the document, indicate your choice below. If you do not consent, you will be redirected to prolific to return your submission.</p>",
                "trial_type": "html-button-response",
                "trial_index": 2,
                "time_elapsed": 680604,
                "plugin_version": "2.1.0",
                "resume_trial_index": 2,
                "experiment_has_been_resumed": false,
                "experiment_definition_version": "v1.0.0"
            },
            {
                "rt": 3355,
                "trial_type": "instructions",
                "trial_index": 3,
                "time_elapsed": 684060,
                "view_history": [
                    {
                        "page_index": 0,
                        "viewing_time": 3355
                    }
                ],
                "plugin_version": "2.1.0",
                "resume_trial_index": 3,
                "experiment_has_been_resumed": false,
                "experiment_definition_version": "v1.0.0"
            },
            {
                "rt": 42635,
                "response": {
                    "age": "34",
                    "gender": "Man (including Trans Male/Trans Man)",
                    "country": "Greece",
                    "language": [
                        "Greek",
                        "English"
                    ],
                    "tinnitus": "No",
                    "hearing_loss": "No",
                    "headphone_style": "In-ear"
                },
                "trial_type": "survey",
                "invalid_age": false,
                "trial_index": 4,
                "time_elapsed": 726926,
                "plugin_version": "2.1.0",
                "failed_questions": [],
                "resume_trial_index": 4,
                "experiment_has_been_resumed": false,
                "experiment_definition_version": "v1.0.0"
            },
            {
                "success": true,
                "timeout": false,
                "trial_type": "preload",
                "trial_index": 5,
                "failed_audio": [],
                "failed_video": [],
                "time_elapsed": 733209,
                "failed_images": [],
                "plugin_version": "2.1.0",
                "resume_trial_index": 5,
                "experiment_has_been_resumed": false,
                "experiment_definition_version": "v1.0.0"
            },
            {
                "rt": 5044,
                "trial_type": "instructions",
                "trial_index": 6,
                "time_elapsed": 738382,
                "view_history": [
                    {
                        "page_index": 0,
                        "viewing_time": 5044
                    }
                ],
                "plugin_version": "2.1.0",
                "resume_trial_index": 6,
                "experiment_has_been_resumed": false,
                "experiment_definition_version": "v1.0.0"
            },
            {
                "rt": 2573,
                "score": 6,
                "response": " ",
                "stimulus": "<h2>Contratulations! You <span style=\"color: var(--success);\">passed</span> the headphone check.</h2>\n                        <p> Press [SPACE] to continue to the experiment. </p>",
                "task_type": "screening_summary",
                "trial_type": "html-keyboard-response",
                "do_not_save": false,
                "trial_index": 15,
                "time_elapsed": 823634,
                "plugin_version": "2.1.0",
                "resume_trial_index": 14,
                "screening_completed": true,
                "total_screening_trials": 6,
                "experiment_has_been_resumed": false,
                "experiment_definition_version": "v1.0.0"
            },
            {
                "rt": 3305,
                "trial_type": "instructions",
                "trial_index": 32,
                "time_elapsed": 827040,
                "view_history": [
                    {
                        "page_index": 0,
                        "viewing_time": 3305
                    }
                ],
                "plugin_version": "2.1.0",
                "resume_trial_index": 32,
                "experiment_has_been_resumed": false,
                "experiment_definition_version": "v1.0.0"
            },
            {
                "success": true,
                "timeout": false,
                "trial_type": "preload",
                "trial_index": 3,
                "failed_audio": [],
                "failed_video": [],
                "time_elapsed": 4534,
                "failed_images": [],
                "plugin_version": "2.1.0",
                "resume_trial_index": 33,
                "experiment_has_been_resumed": true,
                "experiment_definition_version": "v1.0.0",
                "experiment_resumed_from_index": 32
            },
            {
                "rt": 1403,
                "trial_type": "instructions",
                "trial_index": 4,
                "time_elapsed": 6032,
                "view_history": [
                    {
                        "page_index": 0,
                        "viewing_time": 1403
                    }
                ],
                "plugin_version": "2.1.0",
                "resume_trial_index": 34,
                "experiment_has_been_resumed": true,
                "experiment_definition_version": "v1.0.0",
                "experiment_resumed_from_index": 32
            },
            {
                "rt": 98864,
                "type": "ps0",
                "anchor": "static/assets/wav/training/ps/anchor.wav",
                "response": [
                    "71",
                    "20",
                    "9",
                    "75"
                ],
                "stimulus": [
                    "static/assets/wav/training/ps/pvps.wav",
                    "static/assets/wav/training/ps/nmps.wav",
                    "static/assets/wav/training/ps/anchor.wav",
                    "static/assets/wav/training/ps/librosaps.wav",
                    "static/assets/wav/training/ps/ref.wav"
                ],
                "ref_index": null,
                "reference": "static/assets/wav/training/ps/ref.wav",
                "task_type": "mushra_training",
                "trial_type": "multiple-stimuli-hidden-reference-anchor",
                "trial_index": 5,
                "time_elapsed": 122704,
                "trial_number": 0,
                "plugin_version": "2.1.0",
                "resume_trial_index": 35,
                "experiment_has_been_resumed": true,
                "experiment_definition_version": "v1.0.0",
                "experiment_resumed_from_index": 32
            },
            {
                "rt": 98327,
                "type": "tsm1",
                "anchor": "static/assets/wav/training/tsm/anchor.wav",
                "response": [
                    "11",
                    "49",
                    "53",
                    "84",
                    "96"
                ],
                "stimulus": [
                    "static/assets/wav/training/tsm/tsmnet.wav",
                    "static/assets/wav/training/tsm/anchor.wav",
                    "static/assets/wav/training/tsm/nm.wav",
                    "static/assets/wav/training/tsm/hps.wav",
                    "static/assets/wav/training/tsm/pv.wav",
                    "static/assets/wav/training/tsm/ref.wav"
                ],
                "ref_index": null,
                "reference": "static/assets/wav/training/tsm/ref.wav",
                "task_type": "mushra_training",
                "trial_type": "multiple-stimuli-hidden-reference-anchor",
                "trial_index": 6,
                "time_elapsed": 223594,
                "trial_number": 1,
                "plugin_version": "2.1.0",
                "resume_trial_index": 36,
                "experiment_has_been_resumed": true,
                "experiment_definition_version": "v1.0.0",
                "experiment_resumed_from_index": 32
            },
            {
                "rt": 24011,
                "trial_type": "instructions",
                "trial_index": 7,
                "time_elapsed": 247969,
                "view_history": [
                    {
                        "page_index": 0,
                        "viewing_time": 24011
                    }
                ],
                "plugin_version": "2.1.0",
                "resume_trial_index": 37,
                "experiment_has_been_resumed": true,
                "experiment_definition_version": "v1.0.0",
                "experiment_resumed_from_index": 32
            },
            {
                "rt": 52784,
                "type": "ps7",
                "anchor": "static/assets/wav/tests/ps7/anchor.wav",
                "response": [
                    "9",
                    "89",
                    "2",
                    "63"
                ],
                "stimulus": [
                    "static/assets/wav/tests/ps7/anchor.wav",
                    "static/assets/wav/tests/ps7/pvps.wav",
                    "static/assets/wav/tests/ps7/nmps.wav",
                    "static/assets/wav/tests/ps7/librosaps.wav",
                    "static/assets/wav/tests/ps7/ref.wav"
                ],
                "ref_index": null,
                "reference": "static/assets/wav/tests/ps7/ref.wav",
                "task_type": "mushra_main_experiment",
                "trial_type": "multiple-stimuli-hidden-reference-anchor",
                "trial_index": 8,
                "time_elapsed": 303020,
                "trial_number": "7",
                "plugin_version": "2.1.0",
                "resume_trial_index": 38,
                "experiment_has_been_resumed": true,
                "experiment_definition_version": "v1.0.0",
                "experiment_resumed_from_index": 32
            },
            {
                "rt": 36803,
                "type": "ps-1",
                "anchor": "static/assets/wav/tests/ps-1/anchor.wav",
                "response": [
                    "14",
                    "11",
                    "15",
                    "15"
                ],
                "stimulus": [
                    "static/assets/wav/tests/ps-1/nmps.wav",
                    "static/assets/wav/tests/ps-1/anchor.wav",
                    "static/assets/wav/tests/ps-1/pvps.wav",
                    "static/assets/wav/tests/ps-1/librosaps.wav",
                    "static/assets/wav/tests/ps-1/ref.wav"
                ],
                "ref_index": null,
                "reference": "static/assets/wav/tests/ps-1/ref.wav",
                "task_type": "mushra_main_experiment",
                "trial_type": "multiple-stimuli-hidden-reference-anchor",
                "trial_index": 9,
                "time_elapsed": 341974,
                "trial_number": "-1",
                "plugin_version": "2.1.0",
                "resume_trial_index": 39,
                "experiment_has_been_resumed": true,
                "experiment_definition_version": "v1.0.0",
                "experiment_resumed_from_index": 32
            },
            {
                "rt": 32034,
                "type": "ps3",
                "anchor": "static/assets/wav/tests/ps3/anchor.wav",
                "response": [
                    "55",
                    "14",
                    "34",
                    "90"
                ],
                "stimulus": [
                    "static/assets/wav/tests/ps3/librosaps.wav",
                    "static/assets/wav/tests/ps3/anchor.wav",
                    "static/assets/wav/tests/ps3/nmps.wav",
                    "static/assets/wav/tests/ps3/pvps.wav",
                    "static/assets/wav/tests/ps3/ref.wav"
                ],
                "ref_index": null,
                "reference": "static/assets/wav/tests/ps3/ref.wav",
                "task_type": "mushra_main_experiment",
                "trial_type": "multiple-stimuli-hidden-reference-anchor",
                "trial_index": 10,
                "time_elapsed": 375881,
                "trial_number": "3",
                "plugin_version": "2.1.0",
                "resume_trial_index": 40,
                "experiment_has_been_resumed": true,
                "experiment_definition_version": "v1.0.0",
                "experiment_resumed_from_index": 32
            },
            {
                "rt": 38617,
                "type": "ps-7",
                "anchor": "static/assets/wav/tests/ps-7/anchor.wav",
                "response": [
                    "4",
                    "47",
                    "86",
                    "14"
                ],
                "stimulus": [
                    "static/assets/wav/tests/ps-7/anchor.wav",
                    "static/assets/wav/tests/ps-7/librosaps.wav",
                    "static/assets/wav/tests/ps-7/pvps.wav",
                    "static/assets/wav/tests/ps-7/nmps.wav",
                    "static/assets/wav/tests/ps-7/ref.wav"
                ],
                "ref_index": null,
                "reference": "static/assets/wav/tests/ps-7/ref.wav",
                "task_type": "mushra_main_experiment",
                "trial_type": "multiple-stimuli-hidden-reference-anchor",
                "trial_index": 11,
                "time_elapsed": 416787,
                "trial_number": "-7",
                "plugin_version": "2.1.0",
                "resume_trial_index": 41,
                "experiment_has_been_resumed": true,
                "experiment_definition_version": "v1.0.0",
                "experiment_resumed_from_index": 32
            },
            {
                "rt": 43223,
                "type": "ps1",
                "anchor": "static/assets/wav/tests/ps1/anchor.wav",
                "response": [
                    "22",
                    "56",
                    "25",
                    "79"
                ],
                "stimulus": [
                    "static/assets/wav/tests/ps1/nmps.wav",
                    "static/assets/wav/tests/ps1/librosaps.wav",
                    "static/assets/wav/tests/ps1/anchor.wav",
                    "static/assets/wav/tests/ps1/pvps.wav",
                    "static/assets/wav/tests/ps1/ref.wav"
                ],
                "ref_index": null,
                "reference": "static/assets/wav/tests/ps1/ref.wav",
                "task_type": "mushra_main_experiment",
                "trial_type": "multiple-stimuli-hidden-reference-anchor",
                "trial_index": 12,
                "time_elapsed": 461699,
                "trial_number": "1",
                "plugin_version": "2.1.0",
                "resume_trial_index": 42,
                "experiment_has_been_resumed": true,
                "experiment_definition_version": "v1.0.0",
                "experiment_resumed_from_index": 32
            },
            {
                "rt": 38385,
                "type": "tsm1.25",
                "anchor": "static/assets/wav/tests/tsm1.25/anchor.wav",
                "response": [
                    "50",
                    "82",
                    "12",
                    "24",
                    "5"
                ],
                "stimulus": [
                    "static/assets/wav/tests/tsm1.25/hps.wav",
                    "static/assets/wav/tests/tsm1.25/pv.wav",
                    "static/assets/wav/tests/tsm1.25/anchor.wav",
                    "static/assets/wav/tests/tsm1.25/nm.wav",
                    "static/assets/wav/tests/tsm1.25/tsmnet.wav",
                    "static/assets/wav/tests/tsm1.25/ref.wav"
                ],
                "ref_index": null,
                "reference": "static/assets/wav/tests/tsm1.25/ref.wav",
                "task_type": "mushra_main_experiment",
                "trial_type": "multiple-stimuli-hidden-reference-anchor",
                "trial_index": 13,
                "time_elapsed": 502040,
                "trial_number": "1.25",
                "plugin_version": "2.1.0",
                "resume_trial_index": 43,
                "experiment_has_been_resumed": true,
                "experiment_definition_version": "v1.0.0",
                "experiment_resumed_from_index": 32
            },
            {
                "rt": 31883,
                "type": "tsm0.85",
                "anchor": "static/assets/wav/tests/tsm0.85/anchor.wav",
                "response": [
                    "35",
                    "7",
                    "90",
                    "43",
                    "59"
                ],
                "stimulus": [
                    "static/assets/wav/tests/tsm0.85/nm.wav",
                    "static/assets/wav/tests/tsm0.85/tsmnet.wav",
                    "static/assets/wav/tests/tsm0.85/pv.wav",
                    "static/assets/wav/tests/tsm0.85/hps.wav",
                    "static/assets/wav/tests/tsm0.85/anchor.wav",
                    "static/assets/wav/tests/tsm0.85/ref.wav"
                ],
                "ref_index": null,
                "reference": "static/assets/wav/tests/tsm0.85/ref.wav",
                "task_type": "mushra_main_experiment",
                "trial_type": "multiple-stimuli-hidden-reference-anchor",
                "trial_index": 14,
                "time_elapsed": 536063,
                "trial_number": "0.85",
                "plugin_version": "2.1.0",
                "resume_trial_index": 44,
                "experiment_has_been_resumed": true,
                "experiment_definition_version": "v1.0.0",
                "experiment_resumed_from_index": 32
            },
            {
                "rt": 54195,
                "type": "tsm1.35",
                "anchor": "static/assets/wav/tests/tsm1.35/anchor.wav",
                "response": [
                    "15",
                    "56",
                    "7",
                    "95",
                    "37"
                ],
                "stimulus": [
                    "static/assets/wav/tests/tsm1.35/tsmnet.wav",
                    "static/assets/wav/tests/tsm1.35/nm.wav",
                    "static/assets/wav/tests/tsm1.35/anchor.wav",
                    "static/assets/wav/tests/tsm1.35/pv.wav",
                    "static/assets/wav/tests/tsm1.35/hps.wav",
                    "static/assets/wav/tests/tsm1.35/ref.wav"
                ],
                "ref_index": null,
                "reference": "static/assets/wav/tests/tsm1.35/ref.wav",
                "task_type": "mushra_main_experiment",
                "trial_type": "multiple-stimuli-hidden-reference-anchor",
                "trial_index": 15,
                "time_elapsed": 593657,
                "trial_number": "1.35",
                "plugin_version": "2.1.0",
                "resume_trial_index": 45,
                "experiment_has_been_resumed": true,
                "experiment_definition_version": "v1.0.0",
                "experiment_resumed_from_index": 32
            },
            {
                "rt": 36173,
                "type": "tsm1.5",
                "anchor": "static/assets/wav/tests/tsm1.5/anchor.wav",
                "response": [
                    "27",
                    "36",
                    "45",
                    "90",
                    "57"
                ],
                "stimulus": [
                    "static/assets/wav/tests/tsm1.5/nm.wav",
                    "static/assets/wav/tests/tsm1.5/hps.wav",
                    "static/assets/wav/tests/tsm1.5/tsmnet.wav",
                    "static/assets/wav/tests/tsm1.5/pv.wav",
                    "static/assets/wav/tests/tsm1.5/anchor.wav",
                    "static/assets/wav/tests/tsm1.5/ref.wav"
                ],
                "ref_index": null,
                "reference": "static/assets/wav/tests/tsm1.5/ref.wav",
                "task_type": "mushra_main_experiment",
                "trial_type": "multiple-stimuli-hidden-reference-anchor",
                "trial_index": 16,
                "time_elapsed": 632695,
                "trial_number": "1.5",
                "plugin_version": "2.1.0",
                "resume_trial_index": 46,
                "experiment_has_been_resumed": true,
                "experiment_definition_version": "v1.0.0",
                "experiment_resumed_from_index": 32
            },
            {
                "rt": 40916,
                "type": "tsm0.75",
                "anchor": "static/assets/wav/tests/tsm0.75/anchor.wav",
                "response": [
                    "72",
                    "20",
                    "65",
                    "5",
                    "48"
                ],
                "stimulus": [
                    "static/assets/wav/tests/tsm0.75/pv.wav",
                    "static/assets/wav/tests/tsm0.75/nm.wav",
                    "static/assets/wav/tests/tsm0.75/anchor.wav",
                    "static/assets/wav/tests/tsm0.75/tsmnet.wav",
                    "static/assets/wav/tests/tsm0.75/hps.wav",
                    "static/assets/wav/tests/tsm0.75/ref.wav"
                ],
                "ref_index": null,
                "reference": "static/assets/wav/tests/tsm0.75/ref.wav",
                "task_type": "mushra_main_experiment",
                "trial_type": "multiple-stimuli-hidden-reference-anchor",
                "trial_index": 17,
                "time_elapsed": 675273,
                "trial_number": "0.75",
                "plugin_version": "2.1.0",
                "resume_trial_index": 47,
                "experiment_has_been_resumed": true,
                "experiment_definition_version": "v1.0.0",
                "experiment_resumed_from_index": 32
            }
        ],
        "jspsych_interaction_data": [],
        "jspsych_resume_trial_index": 47,
        "jspsych_max_timeline_length": 47,
        "jspsych_randomization_seed": "0.698122445879862",
        "jspsych_experiment_complete": true
    },
    "27": {
        "user_id": "pro|6697ecff25ee5f53c257ca44",
        "core_initial_visit": "2025-04-11 13:22:35.912237+00:00",
        "core_number_of_visits": 1,
        "core_last_updated": "2025-04-11 13:43:17.227897+00:00",
        "core_task_id": "PS | TS Experiment",
        "jspsych_data": [
            {
                "rt": 432123,
                "trial_type": "instructions",
                "trial_index": 1,
                "time_elapsed": 432152,
                "view_history": [
                    {
                        "page_index": 0,
                        "viewing_time": 297205
                    },
                    {
                        "page_index": 1,
                        "viewing_time": 134917
                    }
                ],
                "plugin_version": "2.1.0",
                "resume_trial_index": 1,
                "experiment_has_been_resumed": false,
                "experiment_definition_version": "v1.0.0"
            },
            {
                "rt": 26502,
                "response": 0,
                "stimulus": "<p>This study requires your informed consent before starting. Please click to review important information pertaining to your participation.</p>\n            <embed type=\"application/pdf\" src=\"/static/assets/doc/informedConsent.pdf\" height=\"700\" style=\"width: 100%; height: 100%; aspect-ratio: 3 / 2\"></embed>\n            <p>Once you have reviewed the document, indicate your choice below. If you do not consent, you will be redirected to prolific to return your submission.</p>",
                "trial_type": "html-button-response",
                "trial_index": 2,
                "time_elapsed": 460077,
                "plugin_version": "2.1.0",
                "resume_trial_index": 2,
                "experiment_has_been_resumed": false,
                "experiment_definition_version": "v1.0.0"
            },
            {
                "rt": 7576,
                "trial_type": "instructions",
                "trial_index": 3,
                "time_elapsed": 469222,
                "view_history": [
                    {
                        "page_index": 0,
                        "viewing_time": 7576
                    }
                ],
                "plugin_version": "2.1.0",
                "resume_trial_index": 3,
                "experiment_has_been_resumed": false,
                "experiment_definition_version": "v1.0.0"
            },
            {
                "rt": 248758,
                "response": {
                    "age": "30",
                    "gender": "Woman (including Trans Female/Trans Woman)",
                    "country": "South Africa",
                    "language": [
                        "Afrikaans",
                        "English",
                        "Tsonga"
                    ],
                    "tinnitus": "No",
                    "hearing_loss": "No",
                    "headphone_style": "Over-the-ear"
                },
                "trial_type": "survey",
                "invalid_age": false,
                "trial_index": 4,
                "time_elapsed": 721210,
                "plugin_version": "2.1.0",
                "failed_questions": [],
                "resume_trial_index": 4,
                "experiment_has_been_resumed": false,
                "experiment_definition_version": "v1.0.0"
            },
            {
                "success": true,
                "timeout": false,
                "trial_type": "preload",
                "trial_index": 5,
                "failed_audio": [],
                "failed_video": [],
                "time_elapsed": 726398,
                "failed_images": [],
                "plugin_version": "2.1.0",
                "resume_trial_index": 5,
                "experiment_has_been_resumed": false,
                "experiment_definition_version": "v1.0.0"
            },
            {
                "rt": 49129,
                "trial_type": "instructions",
                "trial_index": 6,
                "time_elapsed": 775852,
                "view_history": [
                    {
                        "page_index": 0,
                        "viewing_time": 49129
                    }
                ],
                "plugin_version": "2.1.0",
                "resume_trial_index": 6,
                "experiment_has_been_resumed": false,
                "experiment_definition_version": "v1.0.0"
            },
            {
                "rt": 61345,
                "score": 0,
                "response": " ",
                "stimulus": "<h2>You <span style=\"color: var(--error);\">did not pass</span> the headphone check.</h2>\n                        <p>Please retry the test using some other headphones if they are available.</p>\n                        <p>Press [SPACE] to retry the headphone check.</p>",
                "task_type": "screening_summary",
                "trial_type": "html-keyboard-response",
                "do_not_save": false,
                "trial_index": 20,
                "time_elapsed": 1021138,
                "plugin_version": "2.1.0",
                "resume_trial_index": 15,
                "screening_completed": false,
                "total_screening_trials": 6,
                "experiment_has_been_resumed": false,
                "experiment_definition_version": "v1.0.0"
            },
            {
                "rt": 16176,
                "score": 0,
                "response": " ",
                "stimulus": "<h2>You <span style=\"color: var(--error);\">did not pass</span> the headphone check.</h2>\n                        <p>Please retry the test using some other headphones if they are available.</p>\n                        <p>Press [SPACE] to retry the headphone check.</p>",
                "task_type": "screening_summary",
                "trial_type": "html-keyboard-response",
                "do_not_save": false,
                "trial_index": 28,
                "time_elapsed": 1084652,
                "plugin_version": "2.1.0",
                "resume_trial_index": 23,
                "screening_completed": false,
                "total_screening_trials": 12,
                "experiment_has_been_resumed": false,
                "experiment_definition_version": "v1.0.0"
            },
            {
                "rt": 3210,
                "score": 0,
                "response": " ",
                "stimulus": "<h2> You <span style=\"color: var(--error);\">did not pass</span> the headphone check.</h2>\n                    <p> Press [SPACE] to quit the experiment and return to prolific.</p>",
                "task_type": "screening_summary",
                "trial_type": "html-keyboard-response",
                "do_not_save": false,
                "trial_index": 36,
                "time_elapsed": 1224495,
                "plugin_version": "2.1.0",
                "early_termination": {
                    "abort": true,
                    "message": "<h4>You failed the headphone screening the maximum allowed number of times and are therefore ineligible to participate.</h4><p>You will be redirected to Prolific in 3 seconds.</p>",
                    "completion_type": "HEADPHONE_FAIL"
                },
                "resume_trial_index": 30,
                "screening_completed": true,
                "total_screening_trials": 18,
                "experiment_has_been_resumed": false,
                "experiment_definition_version": "v1.0.0"
            },
            {
                "reason": "HEADPHONE_FAIL",
                "time_elapsed": 0,
                "early_termination": true
            }
        ],
        "jspsych_interaction_data": [],
        "jspsych_resume_trial_index": 30,
        "jspsych_max_timeline_length": 47,
        "jspsych_randomization_seed": "0.2530305287530169",
        "jspsych_experiment_complete": true
    },
    "20": {
        "user_id": "pro|6777ab64b5cb247b8b796ef0",
        "core_initial_visit": "2025-04-11 13:18:48.711942+00:00",
        "core_number_of_visits": 3,
        "core_last_updated": "2025-04-11 14:07:13.175589+00:00",
        "core_task_id": "PS | TS Experiment",
        "jspsych_data": [
            {
                "rt": 1251220,
                "trial_type": "instructions",
                "trial_index": 1,
                "time_elapsed": 1251228,
                "view_history": [
                    {
                        "page_index": 0,
                        "viewing_time": 1228092
                    },
                    {
                        "page_index": 1,
                        "viewing_time": 23127
                    }
                ],
                "plugin_version": "2.1.0",
                "resume_trial_index": 1,
                "experiment_has_been_resumed": false,
                "experiment_definition_version": "v1.0.0"
            },
            {
                "rt": 6813,
                "response": 0,
                "stimulus": "<p>This study requires your informed consent before starting. Please click to review important information pertaining to your participation.</p>\n            <embed type=\"application/pdf\" src=\"/static/assets/doc/informedConsent.pdf\" height=\"700\" style=\"width: 100%; height: 100%; aspect-ratio: 3 / 2\"></embed>\n            <p>Once you have reviewed the document, indicate your choice below. If you do not consent, you will be redirected to prolific to return your submission.</p>",
                "trial_type": "html-button-response",
                "trial_index": 2,
                "time_elapsed": 1263470,
                "plugin_version": "2.1.0",
                "resume_trial_index": 2,
                "experiment_has_been_resumed": false,
                "experiment_definition_version": "v1.0.0"
            },
            {
                "rt": 4168,
                "trial_type": "instructions",
                "trial_index": 3,
                "time_elapsed": 1273383,
                "view_history": [
                    {
                        "page_index": 0,
                        "viewing_time": 4168
                    }
                ],
                "plugin_version": "2.1.0",
                "resume_trial_index": 3,
                "experiment_has_been_resumed": false,
                "experiment_definition_version": "v1.0.0"
            },
            {
                "rt": 138866,
                "response": {
                    "age": "28",
                    "gender": "Man (including Trans Male/Trans Man)",
                    "country": "South Africa",
                    "language": [
                        "English"
                    ],
                    "tinnitus": "No",
                    "hearing_loss": "No",
                    "headphone_style": "Over-the-ear"
                },
                "trial_type": "survey",
                "invalid_age": false,
                "trial_index": 4,
                "time_elapsed": 1413097,
                "plugin_version": "2.1.0",
                "failed_questions": [],
                "resume_trial_index": 4,
                "experiment_has_been_resumed": false,
                "experiment_definition_version": "v1.0.0"
            },
            {
                "success": true,
                "timeout": false,
                "trial_type": "preload",
                "trial_index": 5,
                "failed_audio": [],
                "failed_video": [],
                "time_elapsed": 1425164,
                "failed_images": [],
                "plugin_version": "2.1.0",
                "resume_trial_index": 5,
                "experiment_has_been_resumed": false,
                "experiment_definition_version": "v1.0.0"
            },
            {
                "rt": 9901,
                "trial_type": "instructions",
                "trial_index": 6,
                "time_elapsed": 1436081,
                "view_history": [
                    {
                        "page_index": 0,
                        "viewing_time": 9901
                    }
                ],
                "plugin_version": "2.1.0",
                "resume_trial_index": 6,
                "experiment_has_been_resumed": false,
                "experiment_definition_version": "v1.0.0"
            },
            {
                "rt": 4583,
                "score": 6,
                "response": " ",
                "stimulus": "<h2>Contratulations! You <span style=\"color: var(--success);\">passed</span> the headphone check.</h2>\n                        <p> Press [SPACE] to continue to the experiment. </p>",
                "task_type": "screening_summary",
                "trial_type": "html-keyboard-response",
                "do_not_save": false,
                "trial_index": 11,
                "time_elapsed": 45093,
                "plugin_version": "2.1.0",
                "resume_trial_index": 14,
                "screening_completed": true,
                "total_screening_trials": 6,
                "experiment_has_been_resumed": true,
                "experiment_definition_version": "v1.0.0",
                "experiment_resumed_from_index": 6
            },
            {
                "rt": 6137,
                "trial_type": "instructions",
                "trial_index": 28,
                "time_elapsed": 53233,
                "view_history": [
                    {
                        "page_index": 0,
                        "viewing_time": 6137
                    }
                ],
                "plugin_version": "2.1.0",
                "resume_trial_index": 32,
                "experiment_has_been_resumed": true,
                "experiment_definition_version": "v1.0.0",
                "experiment_resumed_from_index": 6
            },
            {
                "success": true,
                "timeout": false,
                "trial_type": "preload",
                "trial_index": 29,
                "failed_audio": [],
                "failed_video": [],
                "time_elapsed": 54934,
                "failed_images": [],
                "plugin_version": "2.1.0",
                "resume_trial_index": 33,
                "experiment_has_been_resumed": true,
                "experiment_definition_version": "v1.0.0",
                "experiment_resumed_from_index": 6
            },
            {
                "rt": 67063,
                "trial_type": "instructions",
                "trial_index": 30,
                "time_elapsed": 122452,
                "view_history": [
                    {
                        "page_index": 0,
                        "viewing_time": 67063
                    }
                ],
                "plugin_version": "2.1.0",
                "resume_trial_index": 34,
                "experiment_has_been_resumed": true,
                "experiment_definition_version": "v1.0.0",
                "experiment_resumed_from_index": 6
            },
            {
                "rt": 135934,
                "type": "ps0",
                "anchor": "static/assets/wav/training/ps/anchor.wav",
                "response": [
                    "0",
                    "40",
                    "20",
                    "30"
                ],
                "stimulus": [
                    "static/assets/wav/training/ps/pvps.wav",
                    "static/assets/wav/training/ps/anchor.wav",
                    "static/assets/wav/training/ps/nmps.wav",
                    "static/assets/wav/training/ps/librosaps.wav",
                    "static/assets/wav/training/ps/ref.wav"
                ],
                "ref_index": null,
                "reference": "static/assets/wav/training/ps/ref.wav",
                "task_type": "mushra_training",
                "trial_type": "multiple-stimuli-hidden-reference-anchor",
                "trial_index": 31,
                "time_elapsed": 287891,
                "trial_number": 0,
                "plugin_version": "2.1.0",
                "resume_trial_index": 35,
                "experiment_has_been_resumed": true,
                "experiment_definition_version": "v1.0.0",
                "experiment_resumed_from_index": 6
            },
            {
                "rt": 106454,
                "type": "tsm1",
                "anchor": "static/assets/wav/training/tsm/anchor.wav",
                "response": [
                    "0",
                    "0",
                    "5",
                    "10",
                    "10"
                ],
                "stimulus": [
                    "static/assets/wav/training/tsm/anchor.wav",
                    "static/assets/wav/training/tsm/nm.wav",
                    "static/assets/wav/training/tsm/tsmnet.wav",
                    "static/assets/wav/training/tsm/pv.wav",
                    "static/assets/wav/training/tsm/hps.wav",
                    "static/assets/wav/training/tsm/ref.wav"
                ],
                "ref_index": null,
                "reference": "static/assets/wav/training/tsm/ref.wav",
                "task_type": "mushra_training",
                "trial_type": "multiple-stimuli-hidden-reference-anchor",
                "trial_index": 32,
                "time_elapsed": 418311,
                "trial_number": 1,
                "plugin_version": "2.1.0",
                "resume_trial_index": 36,
                "experiment_has_been_resumed": true,
                "experiment_definition_version": "v1.0.0",
                "experiment_resumed_from_index": 6
            },
            {
                "rt": 7796,
                "trial_type": "instructions",
                "trial_index": 33,
                "time_elapsed": 428782,
                "view_history": [
                    {
                        "page_index": 0,
                        "viewing_time": 7796
                    }
                ],
                "plugin_version": "2.1.0",
                "resume_trial_index": 37,
                "experiment_has_been_resumed": true,
                "experiment_definition_version": "v1.0.0",
                "experiment_resumed_from_index": 6
            },
            {
                "rt": 35766,
                "type": "ps-7",
                "anchor": "static/assets/wav/tests/ps-7/anchor.wav",
                "response": [
                    "0",
                    "0",
                    "20",
                    "10"
                ],
                "stimulus": [
                    "static/assets/wav/tests/ps-7/anchor.wav",
                    "static/assets/wav/tests/ps-7/nmps.wav",
                    "static/assets/wav/tests/ps-7/pvps.wav",
                    "static/assets/wav/tests/ps-7/librosaps.wav",
                    "static/assets/wav/tests/ps-7/ref.wav"
                ],
                "ref_index": null,
                "reference": "static/assets/wav/tests/ps-7/ref.wav",
                "task_type": "mushra_main_experiment",
                "trial_type": "multiple-stimuli-hidden-reference-anchor",
                "trial_index": 34,
                "time_elapsed": 478038,
                "trial_number": "-7",
                "plugin_version": "2.1.0",
                "resume_trial_index": 38,
                "experiment_has_been_resumed": true,
                "experiment_definition_version": "v1.0.0",
                "experiment_resumed_from_index": 6
            },
            {
                "rt": 40745,
                "type": "ps7",
                "anchor": "static/assets/wav/tests/ps7/anchor.wav",
                "response": [
                    "40",
                    "15",
                    "40",
                    "75"
                ],
                "stimulus": [
                    "static/assets/wav/tests/ps7/anchor.wav",
                    "static/assets/wav/tests/ps7/nmps.wav",
                    "static/assets/wav/tests/ps7/librosaps.wav",
                    "static/assets/wav/tests/ps7/pvps.wav",
                    "static/assets/wav/tests/ps7/ref.wav"
                ],
                "ref_index": null,
                "reference": "static/assets/wav/tests/ps7/ref.wav",
                "task_type": "mushra_main_experiment",
                "trial_type": "multiple-stimuli-hidden-reference-anchor",
                "trial_index": 35,
                "time_elapsed": 529734,
                "trial_number": "7",
                "plugin_version": "2.1.0",
                "resume_trial_index": 39,
                "experiment_has_been_resumed": true,
                "experiment_definition_version": "v1.0.0",
                "experiment_resumed_from_index": 6
            },
            {
                "rt": 61665,
                "type": "ps1",
                "anchor": "static/assets/wav/tests/ps1/anchor.wav",
                "response": [
                    "75",
                    "70",
                    "35",
                    "35"
                ],
                "stimulus": [
                    "static/assets/wav/tests/ps1/anchor.wav",
                    "static/assets/wav/tests/ps1/pvps.wav",
                    "static/assets/wav/tests/ps1/nmps.wav",
                    "static/assets/wav/tests/ps1/librosaps.wav",
                    "static/assets/wav/tests/ps1/ref.wav"
                ],
                "ref_index": null,
                "reference": "static/assets/wav/tests/ps1/ref.wav",
                "task_type": "mushra_main_experiment",
                "trial_type": "multiple-stimuli-hidden-reference-anchor",
                "trial_index": 36,
                "time_elapsed": 604510,
                "trial_number": "1",
                "plugin_version": "2.1.0",
                "resume_trial_index": 40,
                "experiment_has_been_resumed": true,
                "experiment_definition_version": "v1.0.0",
                "experiment_resumed_from_index": 6
            },
            {
                "rt": 40476,
                "type": "ps-1",
                "anchor": "static/assets/wav/tests/ps-1/anchor.wav",
                "response": [
                    "35",
                    "90",
                    "69",
                    "30"
                ],
                "stimulus": [
                    "static/assets/wav/tests/ps-1/nmps.wav",
                    "static/assets/wav/tests/ps-1/pvps.wav",
                    "static/assets/wav/tests/ps-1/anchor.wav",
                    "static/assets/wav/tests/ps-1/librosaps.wav",
                    "static/assets/wav/tests/ps-1/ref.wav"
                ],
                "ref_index": null,
                "reference": "static/assets/wav/tests/ps-1/ref.wav",
                "task_type": "mushra_main_experiment",
                "trial_type": "multiple-stimuli-hidden-reference-anchor",
                "trial_index": 37,
                "time_elapsed": 652419,
                "trial_number": "-1",
                "plugin_version": "2.1.0",
                "resume_trial_index": 41,
                "experiment_has_been_resumed": true,
                "experiment_definition_version": "v1.0.0",
                "experiment_resumed_from_index": 6
            },
            {
                "rt": 41454,
                "type": "ps3",
                "anchor": "static/assets/wav/tests/ps3/anchor.wav",
                "response": [
                    "45",
                    "51",
                    "21",
                    "100"
                ],
                "stimulus": [
                    "static/assets/wav/tests/ps3/nmps.wav",
                    "static/assets/wav/tests/ps3/librosaps.wav",
                    "static/assets/wav/tests/ps3/anchor.wav",
                    "static/assets/wav/tests/ps3/pvps.wav",
                    "static/assets/wav/tests/ps3/ref.wav"
                ],
                "ref_index": null,
                "reference": "static/assets/wav/tests/ps3/ref.wav",
                "task_type": "mushra_main_experiment",
                "trial_type": "multiple-stimuli-hidden-reference-anchor",
                "trial_index": 38,
                "time_elapsed": 701887,
                "trial_number": "3",
                "plugin_version": "2.1.0",
                "resume_trial_index": 42,
                "experiment_has_been_resumed": true,
                "experiment_definition_version": "v1.0.0",
                "experiment_resumed_from_index": 6
            },
            {
                "rt": 63945,
                "type": "tsm1.35",
                "anchor": "static/assets/wav/tests/tsm1.35/anchor.wav",
                "response": [
                    "80",
                    "85",
                    "85",
                    "30",
                    "40"
                ],
                "stimulus": [
                    "static/assets/wav/tests/tsm1.35/nm.wav",
                    "static/assets/wav/tests/tsm1.35/pv.wav",
                    "static/assets/wav/tests/tsm1.35/anchor.wav",
                    "static/assets/wav/tests/tsm1.35/hps.wav",
                    "static/assets/wav/tests/tsm1.35/tsmnet.wav",
                    "static/assets/wav/tests/tsm1.35/ref.wav"
                ],
                "ref_index": null,
                "reference": "static/assets/wav/tests/tsm1.35/ref.wav",
                "task_type": "mushra_main_experiment",
                "trial_type": "multiple-stimuli-hidden-reference-anchor",
                "trial_index": 39,
                "time_elapsed": 774534,
                "trial_number": "1.35",
                "plugin_version": "2.1.0",
                "resume_trial_index": 43,
                "experiment_has_been_resumed": true,
                "experiment_definition_version": "v1.0.0",
                "experiment_resumed_from_index": 6
            },
            {
                "rt": 48025,
                "type": "tsm1.5",
                "anchor": "static/assets/wav/tests/tsm1.5/anchor.wav",
                "response": [
                    "25",
                    "60",
                    "80",
                    "90",
                    "100"
                ],
                "stimulus": [
                    "static/assets/wav/tests/tsm1.5/tsmnet.wav",
                    "static/assets/wav/tests/tsm1.5/hps.wav",
                    "static/assets/wav/tests/tsm1.5/anchor.wav",
                    "static/assets/wav/tests/tsm1.5/pv.wav",
                    "static/assets/wav/tests/tsm1.5/nm.wav",
                    "static/assets/wav/tests/tsm1.5/ref.wav"
                ],
                "ref_index": null,
                "reference": "static/assets/wav/tests/tsm1.5/ref.wav",
                "task_type": "mushra_main_experiment",
                "trial_type": "multiple-stimuli-hidden-reference-anchor",
                "trial_index": 40,
                "time_elapsed": 839038,
                "trial_number": "1.5",
                "plugin_version": "2.1.0",
                "resume_trial_index": 44,
                "experiment_has_been_resumed": true,
                "experiment_definition_version": "v1.0.0",
                "experiment_resumed_from_index": 6
            },
            {
                "rt": 47185,
                "type": "tsm0.85",
                "anchor": "static/assets/wav/tests/tsm0.85/anchor.wav",
                "response": [
                    "100",
                    "80",
                    "75",
                    "75",
                    "85"
                ],
                "stimulus": [
                    "static/assets/wav/tests/tsm0.85/tsmnet.wav",
                    "static/assets/wav/tests/tsm0.85/hps.wav",
                    "static/assets/wav/tests/tsm0.85/anchor.wav",
                    "static/assets/wav/tests/tsm0.85/nm.wav",
                    "static/assets/wav/tests/tsm0.85/pv.wav",
                    "static/assets/wav/tests/tsm0.85/ref.wav"
                ],
                "ref_index": null,
                "reference": "static/assets/wav/tests/tsm0.85/ref.wav",
                "task_type": "mushra_main_experiment",
                "trial_type": "multiple-stimuli-hidden-reference-anchor",
                "trial_index": 41,
                "time_elapsed": 893705,
                "trial_number": "0.85",
                "plugin_version": "2.1.0",
                "resume_trial_index": 45,
                "experiment_has_been_resumed": true,
                "experiment_definition_version": "v1.0.0",
                "experiment_resumed_from_index": 6
            },
            {
                "rt": 56876,
                "type": "tsm1.25",
                "anchor": "static/assets/wav/tests/tsm1.25/anchor.wav",
                "response": [
                    "65",
                    "70",
                    "71",
                    "75",
                    "65"
                ],
                "stimulus": [
                    "static/assets/wav/tests/tsm1.25/anchor.wav",
                    "static/assets/wav/tests/tsm1.25/nm.wav",
                    "static/assets/wav/tests/tsm1.25/pv.wav",
                    "static/assets/wav/tests/tsm1.25/hps.wav",
                    "static/assets/wav/tests/tsm1.25/tsmnet.wav",
                    "static/assets/wav/tests/tsm1.25/ref.wav"
                ],
                "ref_index": null,
                "reference": "static/assets/wav/tests/tsm1.25/ref.wav",
                "task_type": "mushra_main_experiment",
                "trial_type": "multiple-stimuli-hidden-reference-anchor",
                "trial_index": 42,
                "time_elapsed": 957186,
                "trial_number": "1.25",
                "plugin_version": "2.1.0",
                "resume_trial_index": 46,
                "experiment_has_been_resumed": true,
                "experiment_definition_version": "v1.0.0",
                "experiment_resumed_from_index": 6
            },
            {
                "rt": 108974,
                "type": "tsm0.75",
                "anchor": "static/assets/wav/tests/tsm0.75/anchor.wav",
                "response": [
                    "60",
                    "100",
                    "60",
                    "73",
                    "60"
                ],
                "stimulus": [
                    "static/assets/wav/tests/tsm0.75/pv.wav",
                    "static/assets/wav/tests/tsm0.75/hps.wav",
                    "static/assets/wav/tests/tsm0.75/nm.wav",
                    "static/assets/wav/tests/tsm0.75/tsmnet.wav",
                    "static/assets/wav/tests/tsm0.75/anchor.wav",
                    "static/assets/wav/tests/tsm0.75/ref.wav"
                ],
                "ref_index": null,
                "reference": "static/assets/wav/tests/tsm0.75/ref.wav",
                "task_type": "mushra_main_experiment",
                "trial_type": "multiple-stimuli-hidden-reference-anchor",
                "trial_index": 43,
                "time_elapsed": 1087125,
                "trial_number": "0.75",
                "plugin_version": "2.1.0",
                "resume_trial_index": 47,
                "experiment_has_been_resumed": true,
                "experiment_definition_version": "v1.0.0",
                "experiment_resumed_from_index": 6
            }
        ],
        "jspsych_interaction_data": [],
        "jspsych_resume_trial_index": 47,
        "jspsych_max_timeline_length": 47,
        "jspsych_randomization_seed": "0.8219074810949012",
        "jspsych_experiment_complete": true
    },
    "14": {
        "user_id": "pro|60e163c124453a6eff550552",
        "core_initial_visit": "2025-04-11 13:17:30.906850+00:00",
        "core_number_of_visits": 3,
        "core_last_updated": "2025-04-11 13:37:06.534453+00:00",
        "core_task_id": "PS | TS Experiment",
        "jspsych_data": [
            {
                "rt": 76878,
                "trial_type": "instructions",
                "trial_index": 1,
                "time_elapsed": 76883,
                "view_history": [
                    {
                        "page_index": 0,
                        "viewing_time": 18073
                    },
                    {
                        "page_index": 1,
                        "viewing_time": 58802
                    }
                ],
                "plugin_version": "2.1.0",
                "resume_trial_index": 1,
                "experiment_has_been_resumed": false,
                "experiment_definition_version": "v1.0.0"
            },
            {
                "rt": 14998,
                "response": 0,
                "stimulus": "<p>This study requires your informed consent before starting. Please click to review important information pertaining to your participation.</p>\n            <embed type=\"application/pdf\" src=\"/static/assets/doc/informedConsent.pdf\" height=\"700\" style=\"width: 100%; height: 100%; aspect-ratio: 3 / 2\"></embed>\n            <p>Once you have reviewed the document, indicate your choice below. If you do not consent, you will be redirected to prolific to return your submission.</p>",
                "trial_type": "html-button-response",
                "trial_index": 2,
                "time_elapsed": 92545,
                "plugin_version": "2.1.0",
                "resume_trial_index": 2,
                "experiment_has_been_resumed": false,
                "experiment_definition_version": "v1.0.0"
            },
            {
                "rt": 8865,
                "trial_type": "instructions",
                "trial_index": 3,
                "time_elapsed": 102031,
                "view_history": [
                    {
                        "page_index": 0,
                        "viewing_time": 8865
                    }
                ],
                "plugin_version": "2.1.0",
                "resume_trial_index": 3,
                "experiment_has_been_resumed": false,
                "experiment_definition_version": "v1.0.0"
            },
            {
                "rt": 68272,
                "response": {
                    "age": "32",
                    "gender": "Man (including Trans Male/Trans Man)",
                    "country": "South Africa",
                    "language": [
                        "English"
                    ],
                    "tinnitus": "No",
                    "hearing_loss": "No",
                    "headphone_style": "In-ear"
                },
                "trial_type": "survey",
                "invalid_age": false,
                "trial_index": 4,
                "time_elapsed": 171167,
                "plugin_version": "2.1.0",
                "failed_questions": [],
                "resume_trial_index": 4,
                "experiment_has_been_resumed": false,
                "experiment_definition_version": "v1.0.0"
            },
            {
                "success": true,
                "timeout": false,
                "trial_type": "preload",
                "trial_index": 5,
                "failed_audio": [],
                "failed_video": [],
                "time_elapsed": 173302,
                "failed_images": [],
                "plugin_version": "2.1.0",
                "resume_trial_index": 5,
                "experiment_has_been_resumed": false,
                "experiment_definition_version": "v1.0.0"
            },
            {
                "rt": 16812,
                "trial_type": "instructions",
                "trial_index": 6,
                "time_elapsed": 190356,
                "view_history": [
                    {
                        "page_index": 0,
                        "viewing_time": 16812
                    }
                ],
                "plugin_version": "2.1.0",
                "resume_trial_index": 6,
                "experiment_has_been_resumed": false,
                "experiment_definition_version": "v1.0.0"
            },
            {
                "rt": 2671,
                "score": 5,
                "response": " ",
                "stimulus": "<h2>Contratulations! You <span style=\"color: var(--success);\">passed</span> the headphone check.</h2>\n                        <p> Press [SPACE] to continue to the experiment. </p>",
                "task_type": "screening_summary",
                "trial_type": "html-keyboard-response",
                "do_not_save": false,
                "trial_index": 15,
                "time_elapsed": 303798,
                "plugin_version": "2.1.0",
                "resume_trial_index": 14,
                "screening_completed": true,
                "total_screening_trials": 6,
                "experiment_has_been_resumed": false,
                "experiment_definition_version": "v1.0.0"
            },
            {
                "rt": 4724,
                "trial_type": "instructions",
                "trial_index": 32,
                "time_elapsed": 309246,
                "view_history": [
                    {
                        "page_index": 0,
                        "viewing_time": 4723
                    }
                ],
                "plugin_version": "2.1.0",
                "resume_trial_index": 32,
                "experiment_has_been_resumed": false,
                "experiment_definition_version": "v1.0.0"
            },
            {
                "success": true,
                "timeout": false,
                "trial_type": "preload",
                "trial_index": 33,
                "failed_audio": [],
                "failed_video": [],
                "time_elapsed": 316937,
                "failed_images": [],
                "plugin_version": "2.1.0",
                "resume_trial_index": 33,
                "experiment_has_been_resumed": false,
                "experiment_definition_version": "v1.0.0"
            },
            {
                "rt": 57036,
                "trial_type": "instructions",
                "trial_index": 34,
                "time_elapsed": 374353,
                "view_history": [
                    {
                        "page_index": 0,
                        "viewing_time": 57035
                    }
                ],
                "plugin_version": "2.1.0",
                "resume_trial_index": 34,
                "experiment_has_been_resumed": false,
                "experiment_definition_version": "v1.0.0"
            },
            {
                "rt": 100675,
                "type": "tsm0",
                "anchor": "static/assets/wav/training/tsm/anchor.wav",
                "response": [
                    "26",
                    "25",
                    "10",
                    "59",
                    "2"
                ],
                "stimulus": [
                    "static/assets/wav/training/tsm/pv.wav",
                    "static/assets/wav/training/tsm/nm.wav",
                    "static/assets/wav/training/tsm/anchor.wav",
                    "static/assets/wav/training/tsm/hps.wav",
                    "static/assets/wav/training/tsm/tsmnet.wav",
                    "static/assets/wav/training/tsm/ref.wav"
                ],
                "ref_index": null,
                "reference": "static/assets/wav/training/tsm/ref.wav",
                "task_type": "mushra_training",
                "trial_type": "multiple-stimuli-hidden-reference-anchor",
                "trial_index": 35,
                "time_elapsed": 538477,
                "trial_number": 0,
                "plugin_version": "2.1.0",
                "resume_trial_index": 35,
                "experiment_has_been_resumed": false,
                "experiment_definition_version": "v1.0.0"
            },
            {
                "rt": 38884,
                "type": "ps1",
                "anchor": "static/assets/wav/training/ps/anchor.wav",
                "response": [
                    "13",
                    "13",
                    "9",
                    "96"
                ],
                "stimulus": [
                    "static/assets/wav/training/ps/pvps.wav",
                    "static/assets/wav/training/ps/librosaps.wav",
                    "static/assets/wav/training/ps/nmps.wav",
                    "static/assets/wav/training/ps/anchor.wav",
                    "static/assets/wav/training/ps/ref.wav"
                ],
                "ref_index": null,
                "reference": "static/assets/wav/training/ps/ref.wav",
                "task_type": "mushra_training",
                "trial_type": "multiple-stimuli-hidden-reference-anchor",
                "trial_index": 36,
                "time_elapsed": 599902,
                "trial_number": 1,
                "plugin_version": "2.1.0",
                "resume_trial_index": 36,
                "experiment_has_been_resumed": false,
                "experiment_definition_version": "v1.0.0"
            },
            {
                "rt": 5880,
                "trial_type": "instructions",
                "trial_index": 37,
                "time_elapsed": 605966,
                "view_history": [
                    {
                        "page_index": 0,
                        "viewing_time": 5880
                    }
                ],
                "plugin_version": "2.1.0",
                "resume_trial_index": 37,
                "experiment_has_been_resumed": false,
                "experiment_definition_version": "v1.0.0"
            },
            {
                "rt": 59936,
                "type": "ps3",
                "anchor": "static/assets/wav/tests/ps3/anchor.wav",
                "response": [
                    "10",
                    "28",
                    "88",
                    "0"
                ],
                "stimulus": [
                    "static/assets/wav/tests/ps3/anchor.wav",
                    "static/assets/wav/tests/ps3/librosaps.wav",
                    "static/assets/wav/tests/ps3/pvps.wav",
                    "static/assets/wav/tests/ps3/nmps.wav",
                    "static/assets/wav/tests/ps3/ref.wav"
                ],
                "ref_index": null,
                "reference": "static/assets/wav/tests/ps3/ref.wav",
                "task_type": "mushra_main_experiment",
                "trial_type": "multiple-stimuli-hidden-reference-anchor",
                "trial_index": 38,
                "time_elapsed": 671135,
                "trial_number": "3",
                "plugin_version": "2.1.0",
                "resume_trial_index": 38,
                "experiment_has_been_resumed": false,
                "experiment_definition_version": "v1.0.0"
            },
            {
                "rt": 34745,
                "type": "ps1",
                "anchor": "static/assets/wav/tests/ps1/anchor.wav",
                "response": [
                    "88",
                    "55",
                    "37",
                    "29"
                ],
                "stimulus": [
                    "static/assets/wav/tests/ps1/pvps.wav",
                    "static/assets/wav/tests/ps1/nmps.wav",
                    "static/assets/wav/tests/ps1/anchor.wav",
                    "static/assets/wav/tests/ps1/librosaps.wav",
                    "static/assets/wav/tests/ps1/ref.wav"
                ],
                "ref_index": null,
                "reference": "static/assets/wav/tests/ps1/ref.wav",
                "task_type": "mushra_main_experiment",
                "trial_type": "multiple-stimuli-hidden-reference-anchor",
                "trial_index": 39,
                "time_elapsed": 711106,
                "trial_number": "1",
                "plugin_version": "2.1.0",
                "resume_trial_index": 39,
                "experiment_has_been_resumed": false,
                "experiment_definition_version": "v1.0.0"
            },
            {
                "rt": 65915,
                "type": "ps-1",
                "anchor": "static/assets/wav/tests/ps-1/anchor.wav",
                "response": [
                    "0",
                    "43",
                    "33",
                    "41"
                ],
                "stimulus": [
                    "static/assets/wav/tests/ps-1/nmps.wav",
                    "static/assets/wav/tests/ps-1/anchor.wav",
                    "static/assets/wav/tests/ps-1/librosaps.wav",
                    "static/assets/wav/tests/ps-1/pvps.wav",
                    "static/assets/wav/tests/ps-1/ref.wav"
                ],
                "ref_index": null,
                "reference": "static/assets/wav/tests/ps-1/ref.wav",
                "task_type": "mushra_main_experiment",
                "trial_type": "multiple-stimuli-hidden-reference-anchor",
                "trial_index": 40,
                "time_elapsed": 780200,
                "trial_number": "-1",
                "plugin_version": "2.1.0",
                "resume_trial_index": 40,
                "experiment_has_been_resumed": false,
                "experiment_definition_version": "v1.0.0"
            },
            {
                "rt": 33474,
                "type": "ps-7",
                "anchor": "static/assets/wav/tests/ps-7/anchor.wav",
                "response": [
                    "0",
                    "1",
                    "9",
                    "0"
                ],
                "stimulus": [
                    "static/assets/wav/tests/ps-7/librosaps.wav",
                    "static/assets/wav/tests/ps-7/pvps.wav",
                    "static/assets/wav/tests/ps-7/anchor.wav",
                    "static/assets/wav/tests/ps-7/nmps.wav",
                    "static/assets/wav/tests/ps-7/ref.wav"
                ],
                "ref_index": null,
                "reference": "static/assets/wav/tests/ps-7/ref.wav",
                "task_type": "mushra_main_experiment",
                "trial_type": "multiple-stimuli-hidden-reference-anchor",
                "trial_index": 41,
                "time_elapsed": 816508,
                "trial_number": "-7",
                "plugin_version": "2.1.0",
                "resume_trial_index": 41,
                "experiment_has_been_resumed": false,
                "experiment_definition_version": "v1.0.0"
            },
            {
                "rt": 31335,
                "type": "ps7",
                "anchor": "static/assets/wav/tests/ps7/anchor.wav",
                "response": [
                    "3",
                    "49",
                    "54",
                    "0"
                ],
                "stimulus": [
                    "static/assets/wav/tests/ps7/anchor.wav",
                    "static/assets/wav/tests/ps7/pvps.wav",
                    "static/assets/wav/tests/ps7/librosaps.wav",
                    "static/assets/wav/tests/ps7/nmps.wav",
                    "static/assets/wav/tests/ps7/ref.wav"
                ],
                "ref_index": null,
                "reference": "static/assets/wav/tests/ps7/ref.wav",
                "task_type": "mushra_main_experiment",
                "trial_type": "multiple-stimuli-hidden-reference-anchor",
                "trial_index": 42,
                "time_elapsed": 857419,
                "trial_number": "7",
                "plugin_version": "2.1.0",
                "resume_trial_index": 42,
                "experiment_has_been_resumed": false,
                "experiment_definition_version": "v1.0.0"
            },
            {
                "rt": 45746,
                "type": "tsm1.5",
                "anchor": "static/assets/wav/tests/tsm1.5/anchor.wav",
                "response": [
                    "22",
                    "33",
                    "24",
                    "40",
                    "23"
                ],
                "stimulus": [
                    "static/assets/wav/tests/tsm1.5/pv.wav",
                    "static/assets/wav/tests/tsm1.5/tsmnet.wav",
                    "static/assets/wav/tests/tsm1.5/nm.wav",
                    "static/assets/wav/tests/tsm1.5/anchor.wav",
                    "static/assets/wav/tests/tsm1.5/hps.wav",
                    "static/assets/wav/tests/tsm1.5/ref.wav"
                ],
                "ref_index": null,
                "reference": "static/assets/wav/tests/tsm1.5/ref.wav",
                "task_type": "mushra_main_experiment",
                "trial_type": "multiple-stimuli-hidden-reference-anchor",
                "trial_index": 43,
                "time_elapsed": 908583,
                "trial_number": "1.5",
                "plugin_version": "2.1.0",
                "resume_trial_index": 43,
                "experiment_has_been_resumed": false,
                "experiment_definition_version": "v1.0.0"
            },
            {
                "rt": 47513,
                "type": "tsm0.75",
                "anchor": "static/assets/wav/tests/tsm0.75/anchor.wav",
                "response": [
                    "80",
                    "24",
                    "64",
                    "62",
                    "0"
                ],
                "stimulus": [
                    "static/assets/wav/tests/tsm0.75/anchor.wav",
                    "static/assets/wav/tests/tsm0.75/nm.wav",
                    "static/assets/wav/tests/tsm0.75/hps.wav",
                    "static/assets/wav/tests/tsm0.75/pv.wav",
                    "static/assets/wav/tests/tsm0.75/tsmnet.wav",
                    "static/assets/wav/tests/tsm0.75/ref.wav"
                ],
                "ref_index": null,
                "reference": "static/assets/wav/tests/tsm0.75/ref.wav",
                "task_type": "mushra_main_experiment",
                "trial_type": "multiple-stimuli-hidden-reference-anchor",
                "trial_index": 44,
                "time_elapsed": 973335,
                "trial_number": "0.75",
                "plugin_version": "2.1.0",
                "resume_trial_index": 44,
                "experiment_has_been_resumed": false,
                "experiment_definition_version": "v1.0.0"
            },
            {
                "rt": 34356,
                "type": "tsm1.25",
                "anchor": "static/assets/wav/tests/tsm1.25/anchor.wav",
                "response": [
                    "88",
                    "84",
                    "26",
                    "69",
                    "0"
                ],
                "stimulus": [
                    "static/assets/wav/tests/tsm1.25/hps.wav",
                    "static/assets/wav/tests/tsm1.25/pv.wav",
                    "static/assets/wav/tests/tsm1.25/nm.wav",
                    "static/assets/wav/tests/tsm1.25/anchor.wav",
                    "static/assets/wav/tests/tsm1.25/tsmnet.wav",
                    "static/assets/wav/tests/tsm1.25/ref.wav"
                ],
                "ref_index": null,
                "reference": "static/assets/wav/tests/tsm1.25/ref.wav",
                "task_type": "mushra_main_experiment",
                "trial_type": "multiple-stimuli-hidden-reference-anchor",
                "trial_index": 45,
                "time_elapsed": 1012284,
                "trial_number": "1.25",
                "plugin_version": "2.1.0",
                "resume_trial_index": 45,
                "experiment_has_been_resumed": false,
                "experiment_definition_version": "v1.0.0"
            },
            {
                "rt": 39485,
                "type": "tsm0.85",
                "anchor": "static/assets/wav/tests/tsm0.85/anchor.wav",
                "response": [
                    "0",
                    "60",
                    "78",
                    "80",
                    "0"
                ],
                "stimulus": [
                    "static/assets/wav/tests/tsm0.85/tsmnet.wav",
                    "static/assets/wav/tests/tsm0.85/nm.wav",
                    "static/assets/wav/tests/tsm0.85/anchor.wav",
                    "static/assets/wav/tests/tsm0.85/pv.wav",
                    "static/assets/wav/tests/tsm0.85/hps.wav",
                    "static/assets/wav/tests/tsm0.85/ref.wav"
                ],
                "ref_index": null,
                "reference": "static/assets/wav/tests/tsm0.85/ref.wav",
                "task_type": "mushra_main_experiment",
