{
    "28": {
        "user_id": "gn-as-dot-platform|63aed797-1e65-4132-bd71-918a2af979c9",
        "core_initial_visit": "2025-04-07 10:53:44.343342+00:00",
        "core_number_of_visits": 1,
        "core_last_updated": "2025-04-07 10:59:41.994793+00:00",
        "core_task_id": "Background noise rating",
        "jspsych_data": [
            {
                "rt": 262876,
                "trial_type": "instructions",
                "trial_index": 1,
                "time_elapsed": 262878,
                "view_history": [
                    {
                        "page_index": 0,
                        "viewing_time": 228628
                    },
                    {
                        "page_index": 1,
                        "viewing_time": 34248
                    }
                ],
                "plugin_version": "2.1.0",
                "resume_trial_index": 1,
                "experiment_has_been_resumed": false,
                "experiment_definition_version": "not specified"
            },
            {
                "rt": 8935,
                "response": 0,
                "stimulus": "<p>This study requires your informed consent before starting. Please click to review important information pertaining to your participation.</p>\n            <embed type=\"application/pdf\" src=\"/static/assets/doc/informedConsent.pdf\" height=\"700\" style=\"width: 100%; height: 100%; aspect-ratio: 3 / 2\"></embed>\n            <p>Once you have reviewed the document, indicate your choice below. If you do not consent, you will be redirected to prolific to return your submission.</p>",
                "trial_type": "html-button-response",
                "trial_index": 2,
                "time_elapsed": 271927,
                "plugin_version": "2.1.0",
                "resume_trial_index": 2,
                "experiment_has_been_resumed": false,
                "experiment_definition_version": "not specified"
            },
            {
                "rt": 2400,
                "trial_type": "instructions",
                "trial_index": 3,
                "time_elapsed": 274374,
                "view_history": [
                    {
                        "page_index": 0,
                        "viewing_time": 2400
                    }
                ],
                "plugin_version": "2.1.0",
                "resume_trial_index": 3,
                "experiment_has_been_resumed": false,
                "experiment_definition_version": "not specified"
            },
            {
                "rt": 82624,
                "response": {
                    "age": "46",
                    "gender": "Man (including Trans Male/Trans Man)",
                    "country": "Denmark",
                    "language": [
                        "Danish",
                        "English",
                        "German"
                    ],
                    "tinnitus": "No",
                    "hearing_loss": "No",
                    "headphone_style": "Over-the-ear"
                },
                "trial_type": "survey",
                "invalid_age": true,
                "trial_index": 4,
                "time_elapsed": 357125,
                "plugin_version": "2.1.0",
                "failed_questions": [
                    "age"
                ],
                "early_termination": {
                    "abort": true,
                    "message": "<h4>Some of your answers to the demographics survey were inconsistent with data obtained by prolific. Due to this inaccuracy you are not eligible to participate.</h4><p>Please return your submission on the prolific website.</p><p>You will be redirected in 3 seconds.</p>",
                    "completion_type": "PRESCREENING_FAIL"
                },
                "resume_trial_index": 4,
                "experiment_has_been_resumed": false,
                "experiment_definition_version": "not specified"
            },
            {
                "reason": "PRESCREENING_FAIL",
                "time_elapsed": 0,
                "early_termination": true
            }
        ],
        "jspsych_interaction_data": [],
        "jspsych_resume_trial_index": 4,
        "jspsych_max_timeline_length": 47,
        "jspsych_randomization_seed": "0.15596611017276296",
        "jspsych_experiment_complete": true
    },
    "22": {
        "user_id": "pro|66da880fa8422f0ff8e8e078",
        "core_initial_visit": "2025-04-04 09:20:45.996822+00:00",
        "core_number_of_visits": 1,
        "core_last_updated": "2025-04-04 09:21:08.028721+00:00",
        "core_task_id": "Background noise rating",
        "jspsych_data": [
            {
                "rt": 1846,
                "trial_type": "instructions",
                "trial_index": 1,
                "time_elapsed": 1847,
                "view_history": [
                    {
                        "page_index": 0,
                        "viewing_time": 1193
                    },
                    {
                        "page_index": 1,
                        "viewing_time": 653
                    }
                ],
                "plugin_version": "2.1.0",
                "resume_trial_index": 1,
                "experiment_has_been_resumed": false,
                "experiment_definition_version": "not specified"
            },
            {
                "rt": 1211,
                "response": 0,
                "stimulus": "<p>This study requires your informed consent before starting. Please click to review important information pertaining to your participation.</p>\n            <embed type=\"application/pdf\" src=\"/static/assets/doc/informedConsent.pdf\" height=\"700\" style=\"width: 100%; height: 100%; aspect-ratio: 3 / 2\"></embed>\n            <p>Once you have reviewed the document, indicate your choice below. If you do not consent, you will be redirected to prolific to return your submission.</p>",
                "trial_type": "html-button-response",
                "trial_index": 2,
                "time_elapsed": 3098,
                "plugin_version": "2.1.0",
                "resume_trial_index": 2,
                "experiment_has_been_resumed": false,
                "experiment_definition_version": "not specified"
            },
            {
                "rt": 669,
                "trial_type": "instructions",
                "trial_index": 3,
                "time_elapsed": 3806,
                "view_history": [
                    {
                        "page_index": 0,
                        "viewing_time": 669
                    }
                ],
                "plugin_version": "2.1.0",
                "resume_trial_index": 3,
                "experiment_has_been_resumed": false,
                "experiment_definition_version": "not specified"
            },
            {
                "rt": 17794,
                "response": {
                    "age": "17",
                    "gender": "Rather not say",
                    "country": "Aruba",
                    "language": [
                        "Breton",
                        "English"
                    ],
                    "tinnitus": "No",
                    "hearing_loss": "No",
                    "headphone_style": "In-ear"
                },
                "trial_type": "survey",
                "invalid_age": true,
                "trial_index": 4,
                "time_elapsed": 21699,
                "plugin_version": "2.1.0",
                "failed_questions": [
                    "age"
                ],
                "early_termination": {
                    "abort": true,
                    "message": "<h4>Some of your answers to the demographics survey were inconsistent with data obtained by prolific. Due to this inaccuracy you are not eligible to participate.</h4><p>Please return your submission on the prolific website.</p><p>You will be redirected in 3 seconds.</p>",
                    "completion_type": "PRESCREENING_FAIL"
                },
                "resume_trial_index": 4,
                "experiment_has_been_resumed": false,
                "experiment_definition_version": "not specified"
            },
            {
                "reason": "PRESCREENING_FAIL",
                "time_elapsed": 0,
                "early_termination": true
            }
        ],
        "jspsych_interaction_data": [],
        "jspsych_resume_trial_index": 4,
        "jspsych_max_timeline_length": 47,
        "jspsych_randomization_seed": "0.037635330212182794",
        "jspsych_experiment_complete": true
    },
    "23": {
        "user_id": "pro|65da880fa8422f0ff8e8e078",
        "core_initial_visit": "2025-04-04 09:21:36.668558+00:00",
        "core_number_of_visits": 1,
        "core_last_updated": "2025-04-04 09:21:40.342748+00:00",
        "core_task_id": "Background noise rating",
        "jspsych_data": [
            {
                "rt": 1793,
                "trial_type": "instructions",
                "trial_index": 1,
                "time_elapsed": 1794,
                "view_history": [
                    {
                        "page_index": 0,
                        "viewing_time": 1039
                    },
                    {
                        "page_index": 1,
                        "viewing_time": 754
                    }
                ],
                "plugin_version": "2.1.0",
                "resume_trial_index": 1,
                "experiment_has_been_resumed": false,
                "experiment_definition_version": "not specified"
            },
            {
                "rt": 1563,
                "response": 1,
                "stimulus": "<p>This study requires your informed consent before starting. Please click to review important information pertaining to your participation.</p>\n            <embed type=\"application/pdf\" src=\"/static/assets/doc/informedConsent.pdf\" height=\"700\" style=\"width: 100%; height: 100%; aspect-ratio: 3 / 2\"></embed>\n            <p>Once you have reviewed the document, indicate your choice below. If you do not consent, you will be redirected to prolific to return your submission.</p>",
                "trial_type": "html-button-response",
                "trial_index": 2,
                "time_elapsed": 3434,
                "plugin_version": "2.1.0",
                "early_termination": {
                    "abort": true,
                    "message": "<h4>You did not consent to participate in this study.</h4><p>Please return your submission on the prolific website.</p><p>You will be redirected in 3 seconds.</p>",
                    "completion_type": "NO_CONSENT"
                },
                "resume_trial_index": 2,
                "experiment_has_been_resumed": false,
                "experiment_definition_version": "not specified"
            },
            {
                "reason": "NO_CONSENT",
                "time_elapsed": 0,
                "early_termination": true
            }
        ],
        "jspsych_interaction_data": [],
        "jspsych_resume_trial_index": 2,
        "jspsych_max_timeline_length": 47,
        "jspsych_randomization_seed": "0.26046528813471403",
        "jspsych_experiment_complete": true
    },
    "6": {
        "user_id": "gn-as-dot-platform|fae7a7ca-6a4d-4d12-849c-e253eb9f9d62",
        "core_initial_visit": "2025-04-01 13:42:15.343316+00:00",
        "core_number_of_visits": 7,
        "core_last_updated": "2025-04-01 15:04:04.108860+00:00",
        "core_task_id": "Background noise rating",
        "jspsych_data": [
            {
                "rt": 10206,
                "trial_type": "instructions",
                "trial_index": 1,
                "time_elapsed": 10208,
                "view_history": [
                    {
                        "page_index": 0,
                        "viewing_time": 7057
                    },
                    {
                        "page_index": 1,
                        "viewing_time": 3148
                    }
                ],
                "plugin_version": "2.1.0",
                "resume_trial_index": 1,
                "experiment_has_been_resumed": false,
                "experiment_definition_version": "not specified"
            },
            {
                "rt": 977,
                "response": 0,
                "stimulus": "<p>This study requires your informed consent before starting. Please click to review important information pertaining to your participation.</p>\n            <embed type=\"application/pdf\" src=\"/static/assets/doc/informedConsent.pdf\" height=\"700\" style=\"width: 100%; height: 100%; aspect-ratio: 3 / 2\"></embed>\n            <p>Once you have reviewed the document, indicate your choice below. If you do not consent, you will be redirected to prolific to return your submission.</p>",
                "trial_type": "html-button-response",
                "trial_index": 2,
                "time_elapsed": 11327,
                "plugin_version": "2.1.0",
                "resume_trial_index": 2,
                "experiment_has_been_resumed": false,
                "experiment_definition_version": "not specified"
            },
            {
                "rt": 573,
                "trial_type": "instructions",
                "trial_index": 3,
                "time_elapsed": 11957,
                "view_history": [
                    {
                        "page_index": 0,
                        "viewing_time": 573
                    }
                ],
                "plugin_version": "2.1.0",
                "resume_trial_index": 3,
                "experiment_has_been_resumed": false,
                "experiment_definition_version": "not specified"
            },
            {
                "rt": 16077,
                "response": {
                    "age": "18",
                    "gender": "Woman (including Trans Female/Trans Woman)",
                    "country": "Ascension Island",
                    "language": [
                        "English"
                    ],
                    "tinnitus": "No",
                    "hearing_loss": "No",
                    "headphone_style": "Over-the-ear"
                },
                "trial_type": "survey",
                "invalid_age": false,
                "trial_index": 4,
                "time_elapsed": 28164,
                "plugin_version": "2.1.0",
                "failed_questions": [],
                "resume_trial_index": 4,
                "experiment_has_been_resumed": false,
                "experiment_definition_version": "not specified"
            },
            {
                "success": true,
                "timeout": false,
                "trial_type": "preload",
                "trial_index": 5,
                "failed_audio": [],
                "failed_video": [],
                "time_elapsed": 28531,
                "failed_images": [],
                "plugin_version": "2.1.0",
                "resume_trial_index": 5,
                "experiment_has_been_resumed": false,
                "experiment_definition_version": "not specified"
            },
            {
                "rt": 931,
                "trial_type": "instructions",
                "trial_index": 6,
                "time_elapsed": 29515,
                "view_history": [
                    {
                        "page_index": 0,
                        "viewing_time": 931
                    }
                ],
                "plugin_version": "2.1.0",
                "resume_trial_index": 6,
                "experiment_has_been_resumed": false,
                "experiment_definition_version": "not specified"
            },
            {
                "rt": 1062,
                "score": 6,
                "response": " ",
                "stimulus": "<h2>Contratulations! You <span style=\"color: var(--success);\">passed</span> the headphone check.</h2>\n                        <p> Press [SPACE] to continue to the experiment. </p>",
                "task_type": "screening_summary",
                "trial_type": "html-keyboard-response",
                "do_not_save": false,
                "trial_index": 15,
                "time_elapsed": 62464,
                "plugin_version": "2.1.0",
                "resume_trial_index": 14,
                "screening_completed": true,
                "total_screening_trials": 6,
                "experiment_has_been_resumed": false,
                "experiment_definition_version": "not specified"
            },
            {
                "rt": 1344,
                "trial_type": "instructions",
                "trial_index": 32,
                "time_elapsed": 63875,
                "view_history": [
                    {
                        "page_index": 0,
                        "viewing_time": 1344
                    }
                ],
                "plugin_version": "2.1.0",
                "resume_trial_index": 32,
                "experiment_has_been_resumed": false,
                "experiment_definition_version": "not specified"
            },
            {
                "success": true,
                "timeout": false,
                "trial_type": "preload",
                "trial_index": 33,
                "failed_audio": [],
                "failed_video": [],
                "time_elapsed": 65057,
                "failed_images": [],
                "plugin_version": "2.1.0",
                "resume_trial_index": 33,
                "experiment_has_been_resumed": false,
                "experiment_definition_version": "not specified"
            },
            {
                "rt": 185108,
                "trial_type": "instructions",
                "trial_index": 34,
                "time_elapsed": 250226,
                "view_history": [
                    {
                        "page_index": 0,
                        "viewing_time": 185108
                    }
                ],
                "plugin_version": "2.1.0",
                "resume_trial_index": 34,
                "experiment_has_been_resumed": false,
                "experiment_definition_version": "not specified"
            },
            {
                "rt": 4060,
                "type": "tsm0",
                "anchor": "static/assets/wav/training/tsm/anchor.wav",
                "response": [
                    false,
                    false,
                    false,
                    false,
                    false,
                    false
                ],
                "stimulus": [
                    "static/assets/wav/training/tsm/tsmnet.wav",
                    "static/assets/wav/training/tsm/nm.wav",
                    "static/assets/wav/training/tsm/pv.wav",
                    "static/assets/wav/training/tsm/hps.wav",
                    "static/assets/wav/training/tsm/anchor.wav",
                    "static/assets/wav/training/tsm/ref.wav",
                    "static/assets/wav/training/tsm/ref.wav"
                ],
                "ref_index": 5,
                "reference": "static/assets/wav/training/tsm/ref.wav",
                "task_type": "mushra_training",
                "trial_type": "multiple-stimuli-hidden-reference-anchor",
                "trial_index": 3,
                "time_elapsed": 8892,
                "trial_number": 0,
                "plugin_version": "2.0.0",
                "resume_trial_index": 35,
                "experiment_has_been_resumed": true,
                "experiment_definition_version": "not specified",
                "experiment_resumed_from_index": 34
            },
            {
                "rt": 141964,
                "type": "ps1",
                "anchor": "static/assets/wav/training/ps/anchor.wav",
                "response": [
                    "62",
                    "58",
                    "70",
                    "16",
                    "100"
                ],
                "stimulus": [
                    "static/assets/wav/training/ps/pvps.wav",
                    "static/assets/wav/training/ps/nmps.wav",
                    "static/assets/wav/training/ps/librosaps.wav",
                    "static/assets/wav/training/ps/anchor.wav",
                    "static/assets/wav/training/ps/ref.wav",
                    "static/assets/wav/training/ps/ref.wav"
                ],
                "ref_index": 4,
                "reference": "static/assets/wav/training/ps/ref.wav",
                "task_type": "mushra_training",
                "trial_type": "multiple-stimuli-hidden-reference-anchor",
                "trial_index": 3,
                "time_elapsed": 149018,
                "trial_number": 1,
                "plugin_version": "2.0.0",
                "resume_trial_index": 36,
                "experiment_has_been_resumed": true,
                "experiment_definition_version": "not specified",
                "experiment_resumed_from_index": 35
            },
            {
                "rt": 29479,
                "trial_type": "instructions",
                "trial_index": 4,
                "time_elapsed": 178585,
                "view_history": [
                    {
                        "page_index": 0,
                        "viewing_time": 29478
                    }
                ],
                "plugin_version": "2.1.0",
                "resume_trial_index": 37,
                "experiment_has_been_resumed": true,
                "experiment_definition_version": "not specified",
                "experiment_resumed_from_index": 35
            },
            {
                "rt": null,
                "type": "tsm0.85",
                "anchor": "static/assets/wav/tests/tsm0.85/anchor.wav",
                "response": [
                    false,
                    false,
                    false,
                    false,
                    false,
                    false
                ],
                "stimulus": [
                    "static/assets/wav/tests/tsm0.85/nm.wav",
                    "static/assets/wav/tests/tsm0.85/ref.wav",
                    "static/assets/wav/tests/tsm0.85/tsmnet.wav",
                    "static/assets/wav/tests/tsm0.85/pv.wav",
                    "static/assets/wav/tests/tsm0.85/anchor.wav",
                    "static/assets/wav/tests/tsm0.85/hps.wav",
                    "static/assets/wav/tests/tsm0.85/ref.wav"
                ],
                "ref_index": 1,
                "reference": "static/assets/wav/tests/tsm0.85/ref.wav",
                "task_type": "mushra_main_experiment",
                "trial_type": "multiple-stimuli-hidden-reference-anchor",
                "trial_index": 5,
                "time_elapsed": 181096,
                "trial_number": "0.85",
                "plugin_version": "2.0.0",
                "resume_trial_index": 38,
                "experiment_has_been_resumed": true,
                "experiment_definition_version": "not specified",
                "experiment_resumed_from_index": 35
            },
            {
                "rt": null,
                "type": "tsm0.75",
                "anchor": "static/assets/wav/tests/tsm0.75/anchor.wav",
                "response": [
                    false,
                    false,
                    false,
                    false,
                    false,
                    false
                ],
                "stimulus": [
                    "static/assets/wav/tests/tsm0.75/anchor.wav",
                    "static/assets/wav/tests/tsm0.75/pv.wav",
                    "static/assets/wav/tests/tsm0.75/hps.wav",
                    "static/assets/wav/tests/tsm0.75/nm.wav",
                    "static/assets/wav/tests/tsm0.75/tsmnet.wav",
                    "static/assets/wav/tests/tsm0.75/ref.wav",
                    "static/assets/wav/tests/tsm0.75/ref.wav"
                ],
                "ref_index": 5,
                "reference": "static/assets/wav/tests/tsm0.75/ref.wav",
                "task_type": "mushra_main_experiment",
                "trial_type": "multiple-stimuli-hidden-reference-anchor",
                "trial_index": 6,
                "time_elapsed": 184111,
                "trial_number": "0.75",
                "plugin_version": "2.0.0",
                "resume_trial_index": 39,
                "experiment_has_been_resumed": true,
                "experiment_definition_version": "not specified",
                "experiment_resumed_from_index": 35
            },
            {
                "rt": 61110,
                "type": "tsm1.35",
                "anchor": "static/assets/wav/tests/tsm1.35/anchor.wav",
                "response": [
                    "57",
                    "33",
                    "17",
                    "82",
                    "0",
                    "100"
                ],
                "stimulus": [
                    "static/assets/wav/tests/tsm1.35/hps.wav",
                    "static/assets/wav/tests/tsm1.35/tsmnet.wav",
                    "static/assets/wav/tests/tsm1.35/nm.wav",
                    "static/assets/wav/tests/tsm1.35/pv.wav",
                    "static/assets/wav/tests/tsm1.35/anchor.wav",
                    "static/assets/wav/tests/tsm1.35/ref.wav",
                    "static/assets/wav/tests/tsm1.35/ref.wav"
                ],
                "ref_index": 5,
                "reference": "static/assets/wav/tests/tsm1.35/ref.wav",
                "task_type": "mushra_main_experiment",
                "trial_type": "multiple-stimuli-hidden-reference-anchor",
                "trial_index": 3,
                "time_elapsed": 63759,
                "trial_number": "1.35",
                "plugin_version": "2.0.0",
                "resume_trial_index": 40,
                "experiment_has_been_resumed": true,
                "experiment_definition_version": "not specified",
                "experiment_resumed_from_index": 39
            },
            {
                "rt": 61185,
                "type": "tsm1.25",
                "anchor": "static/assets/wav/tests/tsm1.25/anchor.wav",
                "response": [
                    "76",
                    "35",
                    "25",
                    "19",
                    "74",
                    "100"
                ],
                "stimulus": [
                    "static/assets/wav/tests/tsm1.25/pv.wav",
                    "static/assets/wav/tests/tsm1.25/tsmnet.wav",
                    "static/assets/wav/tests/tsm1.25/nm.wav",
                    "static/assets/wav/tests/tsm1.25/hps.wav",
                    "static/assets/wav/tests/tsm1.25/anchor.wav",
                    "static/assets/wav/tests/tsm1.25/ref.wav",
                    "static/assets/wav/tests/tsm1.25/ref.wav"
                ],
                "ref_index": 5,
                "reference": "static/assets/wav/tests/tsm1.25/ref.wav",
                "task_type": "mushra_main_experiment",
                "trial_type": "multiple-stimuli-hidden-reference-anchor",
                "trial_index": 4,
                "time_elapsed": 144340,
                "trial_number": "1.25",
                "plugin_version": "2.0.0",
                "resume_trial_index": 41,
                "experiment_has_been_resumed": true,
                "experiment_definition_version": "not specified",
                "experiment_resumed_from_index": 39
            },
            {
                "rt": 55873,
                "type": "tsm1.5",
                "anchor": "static/assets/wav/tests/tsm1.5/anchor.wav",
                "response": [
                    "47",
                    "70",
                    "100",
                    "10",
                    "1",
                    "61"
                ],
                "stimulus": [
                    "static/assets/wav/tests/tsm1.5/nm.wav",
                    "static/assets/wav/tests/tsm1.5/pv.wav",
                    "static/assets/wav/tests/tsm1.5/ref.wav",
                    "static/assets/wav/tests/tsm1.5/tsmnet.wav",
                    "static/assets/wav/tests/tsm1.5/anchor.wav",
                    "static/assets/wav/tests/tsm1.5/hps.wav",
                    "static/assets/wav/tests/tsm1.5/ref.wav"
                ],
                "ref_index": 2,
                "reference": "static/assets/wav/tests/tsm1.5/ref.wav",
                "task_type": "mushra_main_experiment",
                "trial_type": "multiple-stimuli-hidden-reference-anchor",
                "trial_index": 5,
                "time_elapsed": 202114,
                "trial_number": "1.5",
                "plugin_version": "2.0.0",
                "resume_trial_index": 42,
                "experiment_has_been_resumed": true,
                "experiment_definition_version": "not specified",
                "experiment_resumed_from_index": 39
            },
            {
                "rt": 36924,
                "type": "ps-7",
                "anchor": "static/assets/wav/tests/ps-7/anchor.wav",
                "response": [
                    "83",
                    "0",
                    "22",
                    "100",
                    "61"
                ],
                "stimulus": [
                    "static/assets/wav/tests/ps-7/pvps.wav",
                    "static/assets/wav/tests/ps-7/anchor.wav",
                    "static/assets/wav/tests/ps-7/nmps.wav",
                    "static/assets/wav/tests/ps-7/ref.wav",
                    "static/assets/wav/tests/ps-7/librosaps.wav",
                    "static/assets/wav/tests/ps-7/ref.wav"
                ],
                "ref_index": 3,
                "reference": "static/assets/wav/tests/ps-7/ref.wav",
                "task_type": "mushra_main_experiment",
                "trial_type": "multiple-stimuli-hidden-reference-anchor",
                "trial_index": 6,
                "time_elapsed": 241070,
                "trial_number": "-7",
                "plugin_version": "2.0.0",
                "resume_trial_index": 43,
                "experiment_has_been_resumed": true,
                "experiment_definition_version": "not specified",
                "experiment_resumed_from_index": 39
            },
            {
                "rt": 34881,
                "type": "ps-1",
                "anchor": "static/assets/wav/tests/ps-1/anchor.wav",
                "response": [
                    "29",
                    "61",
                    "76",
                    "100",
                    "0"
                ],
                "stimulus": [
                    "static/assets/wav/tests/ps-1/nmps.wav",
                    "static/assets/wav/tests/ps-1/librosaps.wav",
                    "static/assets/wav/tests/ps-1/pvps.wav",
                    "static/assets/wav/tests/ps-1/ref.wav",
                    "static/assets/wav/tests/ps-1/anchor.wav",
                    "static/assets/wav/tests/ps-1/ref.wav"
                ],
                "ref_index": 3,
                "reference": "static/assets/wav/tests/ps-1/ref.wav",
                "task_type": "mushra_main_experiment",
                "trial_type": "multiple-stimuli-hidden-reference-anchor",
                "trial_index": 7,
                "time_elapsed": 278212,
                "trial_number": "-1",
                "plugin_version": "2.0.0",
                "resume_trial_index": 44,
                "experiment_has_been_resumed": true,
                "experiment_definition_version": "not specified",
                "experiment_resumed_from_index": 39
            },
            {
                "rt": 35777,
                "type": "ps1",
                "anchor": "static/assets/wav/tests/ps1/anchor.wav",
                "response": [
                    "61",
                    "22",
                    "100",
                    "0",
                    "85"
                ],
                "stimulus": [
                    "static/assets/wav/tests/ps1/librosaps.wav",
                    "static/assets/wav/tests/ps1/nmps.wav",
                    "static/assets/wav/tests/ps1/ref.wav",
                    "static/assets/wav/tests/ps1/anchor.wav",
                    "static/assets/wav/tests/ps1/pvps.wav",
                    "static/assets/wav/tests/ps1/ref.wav"
                ],
                "ref_index": 2,
                "reference": "static/assets/wav/tests/ps1/ref.wav",
                "task_type": "mushra_main_experiment",
                "trial_type": "multiple-stimuli-hidden-reference-anchor",
                "trial_index": 8,
                "time_elapsed": 315783,
                "trial_number": "1",
                "plugin_version": "2.0.0",
                "resume_trial_index": 45,
                "experiment_has_been_resumed": true,
                "experiment_definition_version": "not specified",
                "experiment_resumed_from_index": 39
            },
            {
                "rt": 27910,
                "type": "ps3",
                "anchor": "static/assets/wav/tests/ps3/anchor.wav",
                "response": [
                    "16",
                    "100",
                    "0",
                    "68",
                    "82"
                ],
                "stimulus": [
                    "static/assets/wav/tests/ps3/nmps.wav",
                    "static/assets/wav/tests/ps3/ref.wav",
                    "static/assets/wav/tests/ps3/anchor.wav",
                    "static/assets/wav/tests/ps3/librosaps.wav",
                    "static/assets/wav/tests/ps3/pvps.wav",
                    "static/assets/wav/tests/ps3/ref.wav"
                ],
                "ref_index": 1,
                "reference": "static/assets/wav/tests/ps3/ref.wav",
                "task_type": "mushra_main_experiment",
                "trial_type": "multiple-stimuli-hidden-reference-anchor",
                "trial_index": 9,
                "time_elapsed": 346589,
                "trial_number": "3",
                "plugin_version": "2.0.0",
                "resume_trial_index": 46,
                "experiment_has_been_resumed": true,
                "experiment_definition_version": "not specified",
                "experiment_resumed_from_index": 39
            },
            {
                "rt": null,
                "type": "ps7",
                "anchor": "static/assets/wav/tests/ps7/anchor.wav",
                "response": [
                    false,
                    false,
                    false,
                    false,
                    false
                ],
                "stimulus": [
                    "static/assets/wav/tests/ps7/anchor.wav",
                    "static/assets/wav/tests/ps7/nmps.wav",
                    "static/assets/wav/tests/ps7/ref.wav",
                    "static/assets/wav/tests/ps7/pvps.wav",
                    "static/assets/wav/tests/ps7/librosaps.wav",
                    "static/assets/wav/tests/ps7/ref.wav"
                ],
                "ref_index": 2,
                "reference": "static/assets/wav/tests/ps7/ref.wav",
                "task_type": "mushra_main_experiment",
                "trial_type": "multiple-stimuli-hidden-reference-anchor",
                "trial_index": 10,
                "time_elapsed": 351685,
                "trial_number": "7",
                "plugin_version": "2.0.0",
                "resume_trial_index": 47,
                "experiment_has_been_resumed": true,
                "experiment_definition_version": "not specified",
                "experiment_resumed_from_index": 39
            }
        ],
        "jspsych_interaction_data": [],
        "jspsych_resume_trial_index": 47,
        "jspsych_max_timeline_length": 47,
        "jspsych_randomization_seed": "0.013647717924522684",
        "jspsych_experiment_complete": true
    },
    "7": {
        "user_id": "waad|uZeYI_uFaV-lHl7rs_NHpR2Z2JUHjqW6FtkAk3UtsXY",
        "core_initial_visit": "2025-04-01 15:18:23.184858+00:00",
        "core_number_of_visits": 1,
        "core_last_updated": "2025-04-01 15:28:41.954068+00:00",
        "core_task_id": "Background noise rating",
        "jspsych_data": [
            {
                "rt": 4223,
                "trial_type": "instructions",
                "trial_index": 1,
                "time_elapsed": 4224,
                "view_history": [
                    {
                        "page_index": 0,
                        "viewing_time": 787
                    },
                    {
                        "page_index": 1,
                        "viewing_time": 3436
                    }
                ],
                "plugin_version": "2.1.0",
                "resume_trial_index": 1,
                "experiment_has_been_resumed": false,
                "experiment_definition_version": "not specified"
            },
            {
                "rt": 1117,
                "response": 0,
                "stimulus": "<p>This study requires your informed consent before starting. Please click to review important information pertaining to your participation.</p>\n            <embed type=\"application/pdf\" src=\"/static/assets/doc/informedConsent.pdf\" height=\"700\" style=\"width: 100%; height: 100%; aspect-ratio: 3 / 2\"></embed>\n            <p>Once you have reviewed the document, indicate your choice below. If you do not consent, you will be redirected to prolific to return your submission.</p>",
                "trial_type": "html-button-response",
                "trial_index": 2,
                "time_elapsed": 5480,
                "plugin_version": "2.1.0",
                "resume_trial_index": 2,
                "experiment_has_been_resumed": false,
                "experiment_definition_version": "not specified"
            },
            {
                "rt": 743,
                "trial_type": "instructions",
                "trial_index": 3,
                "time_elapsed": 6278,
                "view_history": [
                    {
                        "page_index": 0,
                        "viewing_time": 743
                    }
                ],
                "plugin_version": "2.1.0",
                "resume_trial_index": 3,
                "experiment_has_been_resumed": false,
                "experiment_definition_version": "not specified"
            },
            {
                "rt": 12783,
                "response": {
                    "age": "18",
                    "gender": "Woman (including Trans Female/Trans Woman)",
                    "country": "Argentina",
                    "language": [
                        "English"
                    ],
                    "tinnitus": "No",
                    "hearing_loss": "No",
                    "headphone_style": "Over-the-ear"
                },
                "trial_type": "survey",
                "invalid_age": false,
                "trial_index": 4,
                "time_elapsed": 19371,
                "plugin_version": "2.1.0",
                "failed_questions": [],
                "resume_trial_index": 4,
                "experiment_has_been_resumed": false,
                "experiment_definition_version": "not specified"
            },
            {
                "success": true,
                "timeout": false,
                "trial_type": "preload",
                "trial_index": 5,
                "failed_audio": [],
                "failed_video": [],
                "time_elapsed": 19859,
                "failed_images": [],
                "plugin_version": "2.1.0",
                "resume_trial_index": 5,
                "experiment_has_been_resumed": false,
                "experiment_definition_version": "not specified"
            },
            {
                "rt": 1204,
                "trial_type": "instructions",
                "trial_index": 6,
                "time_elapsed": 21116,
                "view_history": [
                    {
                        "page_index": 0,
                        "viewing_time": 1204
                    }
                ],
                "plugin_version": "2.1.0",
                "resume_trial_index": 6,
                "experiment_has_been_resumed": false,
                "experiment_definition_version": "not specified"
            },
            {
                "rt": 699,
                "score": 6,
                "response": " ",
                "stimulus": "<h2>Contratulations! You <span style=\"color: var(--success);\">passed</span> the headphone check.</h2>\n                        <p> Press [SPACE] to continue to the experiment. </p>",
                "task_type": "screening_summary",
                "trial_type": "html-keyboard-response",
                "do_not_save": false,
                "trial_index": 15,
                "time_elapsed": 49710,
                "plugin_version": "2.1.0",
                "resume_trial_index": 14,
                "screening_completed": true,
                "total_screening_trials": 6,
                "experiment_has_been_resumed": false,
                "experiment_definition_version": "not specified"
            },
            {
                "rt": 1754,
                "trial_type": "instructions",
                "trial_index": 32,
                "time_elapsed": 51731,
                "view_history": [
                    {
                        "page_index": 0,
                        "viewing_time": 1753
                    }
                ],
                "plugin_version": "2.1.0",
                "resume_trial_index": 32,
                "experiment_has_been_resumed": false,
                "experiment_definition_version": "not specified"
            },
            {
                "success": true,
                "timeout": false,
                "trial_type": "preload",
                "trial_index": 33,
                "failed_audio": [],
                "failed_video": [],
                "time_elapsed": 52895,
                "failed_images": [],
                "plugin_version": "2.1.0",
                "resume_trial_index": 33,
                "experiment_has_been_resumed": false,
                "experiment_definition_version": "not specified"
            },
            {
                "rt": 94677,
                "trial_type": "instructions",
                "trial_index": 34,
                "time_elapsed": 147650,
                "view_history": [
                    {
                        "page_index": 0,
                        "viewing_time": 94677
                    }
                ],
                "plugin_version": "2.1.0",
                "resume_trial_index": 34,
                "experiment_has_been_resumed": false,
                "experiment_definition_version": "not specified"
            },
            {
                "rt": null,
                "type": "tsm0",
                "anchor": "static/assets/wav/training/tsm/anchor.wav",
                "response": [
                    false,
                    false,
                    false,
                    false,
                    false,
                    false
                ],
                "stimulus": [
                    "static/assets/wav/training/tsm/anchor.wav",
                    "static/assets/wav/training/tsm/tsmnet.wav",
                    "static/assets/wav/training/tsm/hps.wav",
                    "static/assets/wav/training/tsm/nm.wav",
                    "static/assets/wav/training/tsm/pv.wav",
                    "static/assets/wav/training/tsm/ref.wav",
                    "static/assets/wav/training/tsm/ref.wav"
                ],
                "ref_index": 5,
                "reference": "static/assets/wav/training/tsm/ref.wav",
                "task_type": "mushra_training",
                "trial_type": "multiple-stimuli-hidden-reference-anchor",
                "trial_index": 35,
                "time_elapsed": 149895,
                "trial_number": 0,
                "plugin_version": "2.0.0",
                "resume_trial_index": 35,
                "experiment_has_been_resumed": false,
                "experiment_definition_version": "not specified"
            },
            {
                "rt": null,
                "type": "ps1",
                "anchor": "static/assets/wav/training/ps/anchor.wav",
                "response": [
                    false,
                    false,
                    false,
                    false,
                    false
                ],
                "stimulus": [
                    "static/assets/wav/training/ps/ref.wav",
                    "static/assets/wav/training/ps/pvps.wav",
                    "static/assets/wav/training/ps/librosaps.wav",
                    "static/assets/wav/training/ps/nmps.wav",
                    "static/assets/wav/training/ps/anchor.wav",
                    "static/assets/wav/training/ps/ref.wav"
                ],
                "ref_index": 0,
                "reference": "static/assets/wav/training/ps/ref.wav",
                "task_type": "mushra_training",
                "trial_type": "multiple-stimuli-hidden-reference-anchor",
                "trial_index": 36,
                "time_elapsed": 151703,
                "trial_number": 1,
                "plugin_version": "2.0.0",
                "resume_trial_index": 36,
                "experiment_has_been_resumed": false,
                "experiment_definition_version": "not specified"
            },
            {
                "rt": 1060,
                "trial_type": "instructions",
                "trial_index": 37,
                "time_elapsed": 152914,
                "view_history": [
                    {
                        "page_index": 0,
                        "viewing_time": 1060
                    }
                ],
                "plugin_version": "2.1.0",
                "resume_trial_index": 37,
                "experiment_has_been_resumed": false,
                "experiment_definition_version": "not specified"
            },
            {
                "rt": 24492,
                "type": "ps-7",
                "anchor": "static/assets/wav/tests/ps-7/anchor.wav",
                "response": [
                    "0",
                    false,
                    "100",
                    "19",
                    "31"
                ],
                "stimulus": [
                    "static/assets/wav/tests/ps-7/anchor.wav",
                    "static/assets/wav/tests/ps-7/nmps.wav",
                    "static/assets/wav/tests/ps-7/ref.wav",
                    "static/assets/wav/tests/ps-7/librosaps.wav",
                    "static/assets/wav/tests/ps-7/pvps.wav",
                    "static/assets/wav/tests/ps-7/ref.wav"
                ],
                "ref_index": 2,
                "reference": "static/assets/wav/tests/ps-7/ref.wav",
                "task_type": "mushra_main_experiment",
                "trial_type": "multiple-stimuli-hidden-reference-anchor",
                "trial_index": 38,
                "time_elapsed": 603963,
                "trial_number": "-7",
                "plugin_version": "2.0.0",
                "resume_trial_index": 38,
                "experiment_has_been_resumed": false,
                "experiment_definition_version": "not specified"
            },
            {
                "rt": null,
                "type": "ps-1",
                "anchor": "static/assets/wav/tests/ps-1/anchor.wav",
                "response": [
                    false,
                    false,
                    false,
                    false,
                    false
                ],
                "stimulus": [
                    "static/assets/wav/tests/ps-1/anchor.wav",
                    "static/assets/wav/tests/ps-1/pvps.wav",
                    "static/assets/wav/tests/ps-1/ref.wav",
                    "static/assets/wav/tests/ps-1/nmps.wav",
                    "static/assets/wav/tests/ps-1/librosaps.wav",
                    "static/assets/wav/tests/ps-1/ref.wav"
                ],
                "ref_index": 2,
                "reference": "static/assets/wav/tests/ps-1/ref.wav",
                "task_type": "mushra_main_experiment",
                "trial_type": "multiple-stimuli-hidden-reference-anchor",
                "trial_index": 39,
                "time_elapsed": 605578,
                "trial_number": "-1",
                "plugin_version": "2.0.0",
                "resume_trial_index": 39,
                "experiment_has_been_resumed": false,
                "experiment_definition_version": "not specified"
            },
            {
                "rt": null,
                "type": "ps1",
                "anchor": "static/assets/wav/tests/ps1/anchor.wav",
                "response": [
                    false,
                    false,
                    false,
                    false,
                    false
                ],
                "stimulus": [
                    "static/assets/wav/tests/ps1/librosaps.wav",
                    "static/assets/wav/tests/ps1/anchor.wav",
                    "static/assets/wav/tests/ps1/pvps.wav",
                    "static/assets/wav/tests/ps1/ref.wav",
                    "static/assets/wav/tests/ps1/nmps.wav",
                    "static/assets/wav/tests/ps1/ref.wav"
                ],
                "ref_index": 3,
                "reference": "static/assets/wav/tests/ps1/ref.wav",
                "task_type": "mushra_main_experiment",
                "trial_type": "multiple-stimuli-hidden-reference-anchor",
                "trial_index": 40,
                "time_elapsed": 607541,
                "trial_number": "1",
                "plugin_version": "2.0.0",
                "resume_trial_index": 40,
                "experiment_has_been_resumed": false,
                "experiment_definition_version": "not specified"
            },
            {
                "rt": null,
                "type": "ps3",
                "anchor": "static/assets/wav/tests/ps3/anchor.wav",
                "response": [
                    false,
                    false,
                    false,
                    false,
                    false
                ],
                "stimulus": [
                    "static/assets/wav/tests/ps3/anchor.wav",
                    "static/assets/wav/tests/ps3/ref.wav",
                    "static/assets/wav/tests/ps3/pvps.wav",
                    "static/assets/wav/tests/ps3/librosaps.wav",
                    "static/assets/wav/tests/ps3/nmps.wav",
                    "static/assets/wav/tests/ps3/ref.wav"
                ],
                "ref_index": 1,
                "reference": "static/assets/wav/tests/ps3/ref.wav",
                "task_type": "mushra_main_experiment",
                "trial_type": "multiple-stimuli-hidden-reference-anchor",
                "trial_index": 41,
                "time_elapsed": 609177,
                "trial_number": "3",
                "plugin_version": "2.0.0",
                "resume_trial_index": 41,
                "experiment_has_been_resumed": false,
                "experiment_definition_version": "not specified"
            },
            {
                "rt": null,
                "type": "ps7",
                "anchor": "static/assets/wav/tests/ps7/anchor.wav",
                "response": [
                    false,
                    false,
                    false,
                    false,
                    false
                ],
                "stimulus": [
                    "static/assets/wav/tests/ps7/pvps.wav",
                    "static/assets/wav/tests/ps7/librosaps.wav",
                    "static/assets/wav/tests/ps7/ref.wav",
                    "static/assets/wav/tests/ps7/nmps.wav",
                    "static/assets/wav/tests/ps7/anchor.wav",
                    "static/assets/wav/tests/ps7/ref.wav"
                ],
                "ref_index": 2,
                "reference": "static/assets/wav/tests/ps7/ref.wav",
                "task_type": "mushra_main_experiment",
                "trial_type": "multiple-stimuli-hidden-reference-anchor",
                "trial_index": 42,
                "time_elapsed": 611112,
                "trial_number": "7",
                "plugin_version": "2.0.0",
                "resume_trial_index": 42,
                "experiment_has_been_resumed": false,
                "experiment_definition_version": "not specified"
            },
            {
                "rt": null,
                "type": "tsm0.85",
                "anchor": "static/assets/wav/tests/tsm0.85/anchor.wav",
                "response": [
                    false,
                    false,
                    false,
                    false,
                    false,
                    false
                ],
                "stimulus": [
                    "static/assets/wav/tests/tsm0.85/hps.wav",
                    "static/assets/wav/tests/tsm0.85/nm.wav",
                    "static/assets/wav/tests/tsm0.85/tsmnet.wav",
                    "static/assets/wav/tests/tsm0.85/anchor.wav",
                    "static/assets/wav/tests/tsm0.85/ref.wav",
                    "static/assets/wav/tests/tsm0.85/pv.wav",
                    "static/assets/wav/tests/tsm0.85/ref.wav"
                ],
                "ref_index": 4,
                "reference": "static/assets/wav/tests/tsm0.85/ref.wav",
                "task_type": "mushra_main_experiment",
                "trial_type": "multiple-stimuli-hidden-reference-anchor",
                "trial_index": 43,
                "time_elapsed": 615343,
                "trial_number": "0.85",
                "plugin_version": "2.0.0",
                "resume_trial_index": 43,
                "experiment_has_been_resumed": false,
                "experiment_definition_version": "not specified"
            },
            {
                "rt": null,
                "type": "tsm0.75",
                "anchor": "static/assets/wav/tests/tsm0.75/anchor.wav",
                "response": [
                    false,
                    false,
                    false,
                    false,
                    false,
                    false
                ],
                "stimulus": [
                    "static/assets/wav/tests/tsm0.75/pv.wav",
                    "static/assets/wav/tests/tsm0.75/nm.wav",
                    "static/assets/wav/tests/tsm0.75/ref.wav",
                    "static/assets/wav/tests/tsm0.75/hps.wav",
                    "static/assets/wav/tests/tsm0.75/tsmnet.wav",
                    "static/assets/wav/tests/tsm0.75/anchor.wav",
                    "static/assets/wav/tests/tsm0.75/ref.wav"
                ],
                "ref_index": 2,
                "reference": "static/assets/wav/tests/tsm0.75/ref.wav",
                "task_type": "mushra_main_experiment",
                "trial_type": "multiple-stimuli-hidden-reference-anchor",
                "trial_index": 44,
                "time_elapsed": 616371,
                "trial_number": "0.75",
                "plugin_version": "2.0.0",
                "resume_trial_index": 44,
                "experiment_has_been_resumed": false,
                "experiment_definition_version": "not specified"
            },
            {
                "rt": null,
                "type": "tsm1.35",
                "anchor": "static/assets/wav/tests/tsm1.35/anchor.wav",
                "response": [
                    false,
                    false,
                    false,
                    false,
                    false,
                    false
                ],
                "stimulus": [
                    "static/assets/wav/tests/tsm1.35/tsmnet.wav",
                    "static/assets/wav/tests/tsm1.35/pv.wav",
                    "static/assets/wav/tests/tsm1.35/nm.wav",
                    "static/assets/wav/tests/tsm1.35/anchor.wav",
                    "static/assets/wav/tests/tsm1.35/hps.wav",
                    "static/assets/wav/tests/tsm1.35/ref.wav",
                    "static/assets/wav/tests/tsm1.35/ref.wav"
                ],
                "ref_index": 5,
                "reference": "static/assets/wav/tests/tsm1.35/ref.wav",
                "task_type": "mushra_main_experiment",
                "trial_type": "multiple-stimuli-hidden-reference-anchor",
                "trial_index": 45,
                "time_elapsed": 617036,
                "trial_number": "1.35",
                "plugin_version": "2.0.0",
                "resume_trial_index": 45,
                "experiment_has_been_resumed": false,
                "experiment_definition_version": "not specified"
            },
            {
                "rt": null,
                "type": "tsm1.25",
                "anchor": "static/assets/wav/tests/tsm1.25/anchor.wav",
                "response": [
                    false,
                    false,
                    false,
                    false,
                    false,
                    false
                ],
                "stimulus": [
                    "static/assets/wav/tests/tsm1.25/ref.wav",
                    "static/assets/wav/tests/tsm1.25/pv.wav",
                    "static/assets/wav/tests/tsm1.25/anchor.wav",
                    "static/assets/wav/tests/tsm1.25/nm.wav",
                    "static/assets/wav/tests/tsm1.25/hps.wav",
                    "static/assets/wav/tests/tsm1.25/tsmnet.wav",
                    "static/assets/wav/tests/tsm1.25/ref.wav"
                ],
                "ref_index": 0,
                "reference": "static/assets/wav/tests/tsm1.25/ref.wav",
                "task_type": "mushra_main_experiment",
                "trial_type": "multiple-stimuli-hidden-reference-anchor",
                "trial_index": 46,
                "time_elapsed": 617676,
                "trial_number": "1.25",
                "plugin_version": "2.0.0",
                "resume_trial_index": 46,
                "experiment_has_been_resumed": false,
                "experiment_definition_version": "not specified"
            },
            {
                "rt": null,
                "type": "tsm1.5",
                "anchor": "static/assets/wav/tests/tsm1.5/anchor.wav",
                "response": [
                    false,
                    false,
                    false,
                    false,
                    false,
                    false
                ],
                "stimulus": [
                    "static/assets/wav/tests/tsm1.5/anchor.wav",
                    "static/assets/wav/tests/tsm1.5/nm.wav",
                    "static/assets/wav/tests/tsm1.5/hps.wav",
                    "static/assets/wav/tests/tsm1.5/ref.wav",
                    "static/assets/wav/tests/tsm1.5/tsmnet.wav",
                    "static/assets/wav/tests/tsm1.5/pv.wav",
                    "static/assets/wav/tests/tsm1.5/ref.wav"
                ],
                "ref_index": 3,
                "reference": "static/assets/wav/tests/tsm1.5/ref.wav",
                "task_type": "mushra_main_experiment",
                "trial_type": "multiple-stimuli-hidden-reference-anchor",
                "trial_index": 47,
                "time_elapsed": 618335,
                "trial_number": "1.5",
                "plugin_version": "2.0.0",
                "resume_trial_index": 47,
                "experiment_has_been_resumed": false,
                "experiment_definition_version": "not specified"
            }
        ],
        "jspsych_interaction_data": [],
        "jspsych_resume_trial_index": 47,
        "jspsych_max_timeline_length": 47,
        "jspsych_randomization_seed": "0.6263374622689826",
        "jspsych_experiment_complete": true
    },
    "19": {
        "user_id": "pro|67da880fa8422f0ff8e8e078",
        "core_initial_visit": "2025-04-04 09:16:36.221223+00:00",
        "core_number_of_visits": 1,
        "core_last_updated": "2025-04-04 09:18:30.406288+00:00",
        "core_task_id": "Background noise rating",
        "jspsych_data": [
            {
                "rt": 66407,
                "trial_type": "instructions",
                "trial_index": 1,
                "time_elapsed": 66422,
                "view_history": [
                    {
                        "page_index": 0,
                        "viewing_time": 28441
                    },
                    {
                        "page_index": 1,
                        "viewing_time": 37966
                    }
                ],
                "plugin_version": "2.1.0",
                "resume_trial_index": 1,
                "experiment_has_been_resumed": false,
                "experiment_definition_version": "not specified"
            },
            {
                "rt": 7282,
                "response": 0,
                "stimulus": "<p>This study requires your informed consent before starting. Please click to review important information pertaining to your participation.</p>\n            <embed type=\"application/pdf\" src=\"/static/assets/doc/informedConsent.pdf\" height=\"700\" style=\"width: 100%; height: 100%; aspect-ratio: 3 / 2\"></embed>\n            <p>Once you have reviewed the document, indicate your choice below. If you do not consent, you will be redirected to prolific to return your submission.</p>",
                "trial_type": "html-button-response",
                "trial_index": 2,
                "time_elapsed": 73748,
                "plugin_version": "2.1.0",
                "resume_trial_index": 2,
                "experiment_has_been_resumed": false,
                "experiment_definition_version": "not specified"
            },
            {
                "rt": 12954,
                "trial_type": "instructions",
                "trial_index": 3,
                "time_elapsed": 86743,
                "view_history": [
                    {
                        "page_index": 0,
                        "viewing_time": 12954
                    }
                ],
                "plugin_version": "2.1.0",
                "resume_trial_index": 3,
                "experiment_has_been_resumed": false,
                "experiment_definition_version": "not specified"
            },
            {
                "rt": 26940,
                "response": {
                    "age": "18",
                    "gender": "Woman (including Trans Female/Trans Woman)",
                    "country": "Denmark",
                    "language": [
                        "English"
                    ],
                    "tinnitus": "No",
                    "hearing_loss": "Rather not say",
                    "headphone_style": "In-ear"
                },
                "trial_type": "survey",
                "invalid_age": false,
                "trial_index": 4,
                "time_elapsed": 113779,
                "plugin_version": "2.1.0",
                "failed_questions": [
                    "hearing_loss"
                ],
                "early_termination": {
                    "abort": true,
                    "message": "<h4>Some of your answers to the demographics survey were inconsistent with data obtained by prolific. Due to this inaccuracy you are not eligible to participate.</h4><p>Please return your submission on the prolific website.</p><p>You will be redirected in 3 seconds.</p>",
                    "completion_type": "PRESCREENING_FAIL"
                },
                "resume_trial_index": 4,
                "experiment_has_been_resumed": false,
                "experiment_definition_version": "not specified"
            },
            {
                "reason": "PRESCREENING_FAIL",
                "time_elapsed": 0,
                "early_termination": true
            }
        ],
        "jspsych_interaction_data": [],
        "jspsych_resume_trial_index": 4,
        "jspsych_max_timeline_length": 47,
        "jspsych_randomization_seed": "0.801997110102499",
        "jspsych_experiment_complete": true
    },
    "25": {
        "user_id": "pro|62da880fa8422f0ff8e8e078",
        "core_initial_visit": "2025-04-04 09:22:52.997957+00:00",
        "core_number_of_visits": 1,
        "core_last_updated": "2025-04-04 09:23:16.620165+00:00",
        "core_task_id": "Background noise rating",
        "jspsych_data": [
            {
                "rt": 1417,
                "trial_type": "instructions",
                "trial_index": 1,
                "time_elapsed": 1418,
                "view_history": [
                    {
                        "page_index": 0,
                        "viewing_time": 793
                    },
                    {
                        "page_index": 1,
                        "viewing_time": 624
                    }
                ],
                "plugin_version": "2.1.0",
                "resume_trial_index": 1,
                "experiment_has_been_resumed": false,
                "experiment_definition_version": "not specified"
            },
            {
                "rt": 6761,
                "response": 0,
                "stimulus": "<p>This study requires your informed consent before starting. Please click to review important information pertaining to your participation.</p>\n            <embed type=\"application/pdf\" src=\"/static/assets/doc/informedConsent.pdf\" height=\"700\" style=\"width: 100%; height: 100%; aspect-ratio: 3 / 2\"></embed>\n            <p>Once you have reviewed the document, indicate your choice below. If you do not consent, you will be redirected to prolific to return your submission.</p>",
                "trial_type": "html-button-response",
                "trial_index": 2,
                "time_elapsed": 8270,
                "plugin_version": "2.1.0",
                "resume_trial_index": 2,
                "experiment_has_been_resumed": false,
                "experiment_definition_version": "not specified"
            },
            {
                "rt": 1286,
                "trial_type": "instructions",
                "trial_index": 3,
                "time_elapsed": 9635,
                "view_history": [
                    {
                        "page_index": 0,
                        "viewing_time": 1286
                    }
                ],
                "plugin_version": "2.1.0",
                "resume_trial_index": 3,
                "experiment_has_been_resumed": false,
                "experiment_definition_version": "not specified"
            },
            {
                "rt": 13566,
                "response": {
                    "age": "18",
                    "gender": "Non-binary",
                    "country": "Denmark",
                    "language": [
                        "English"
                    ],
                    "tinnitus": "No",
                    "hearing_loss": "No",
                    "headphone_style": "I'm not using headphones."
                },
                "trial_type": "survey",
                "invalid_age": false,
                "trial_index": 4,
                "time_elapsed": 23337,
                "plugin_version": "2.1.0",
                "failed_questions": [
                    "headphone_style"
                ],
                "early_termination": {
                    "abort": true,
                    "message": "<h4>Some of your answers to the demographics survey were inconsistent with data obtained by prolific. Due to this inaccuracy you are not eligible to participate.</h4><p>Please return your submission on the prolific website.</p><p>You will be redirected in 3 seconds.</p>",
                    "completion_type": "PRESCREENING_FAIL"
                },
                "resume_trial_index": 4,
                "experiment_has_been_resumed": false,
                "experiment_definition_version": "not specified"
            },
            {
                "reason": "PRESCREENING_FAIL",
                "time_elapsed": 0,
                "early_termination": true
            }
        ],
        "jspsych_interaction_data": [],
        "jspsych_resume_trial_index": 4,
        "jspsych_max_timeline_length": 47,
        "jspsych_randomization_seed": "0.5505426085283756",
        "jspsych_experiment_complete": true
    },
    "26": {
        "user_id": "pro|61da880fa8422f0ff8e8e078",
        "core_initial_visit": "2025-04-04 09:23:35.862906+00:00",
        "core_number_of_visits": 1,
        "core_last_updated": "2025-04-04 09:26:14.769365+00:00",
        "core_task_id": "Background noise rating",
        "jspsych_data": [
            {
                "rt": 2452,
                "trial_type": "instructions",
                "trial_index": 1,
                "time_elapsed": 2454,
                "view_history": [
                    {
                        "page_index": 0,
                        "viewing_time": 1186
                    },
                    {
                        "page_index": 1,
                        "viewing_time": 1266
                    }
                ],
                "plugin_version": "2.1.0",
                "resume_trial_index": 1,
                "experiment_has_been_resumed": false,
                "experiment_definition_version": "not specified"
            },
            {
                "rt": 1824,
                "response": 0,
                "stimulus": "<p>This study requires your informed consent before starting. Please click to review important information pertaining to your participation.</p>\n            <embed type=\"application/pdf\" src=\"/static/assets/doc/informedConsent.pdf\" height=\"700\" style=\"width: 100%; height: 100%; aspect-ratio: 3 / 2\"></embed>\n            <p>Once you have reviewed the document, indicate your choice below. If you do not consent, you will be redirected to prolific to return your submission.</p>",
                "trial_type": "html-button-response",
                "trial_index": 2,
                "time_elapsed": 4313,
                "plugin_version": "2.1.0",
                "resume_trial_index": 2,
                "experiment_has_been_resumed": false,
                "experiment_definition_version": "not specified"
            },
            {
                "rt": 1149,
                "trial_type": "instructions",
                "trial_index": 3,
                "time_elapsed": 5537,
                "view_history": [
                    {
                        "page_index": 0,
                        "viewing_time": 1149
                    }
                ],
                "plugin_version": "2.1.0",
                "resume_trial_index": 3,
                "experiment_has_been_resumed": false,
                "experiment_definition_version": "not specified"
            },
            {
                "rt": 24905,
                "response": {
                    "age": "20",
                    "gender": "Non-binary",
                    "country": "Denmark",
                    "language": [
                        "English"
                    ],
                    "tinnitus": "No",
                    "hearing_loss": "No",
                    "headphone_style": "In-ear"
                },
                "trial_type": "survey",
                "invalid_age": false,
                "trial_index": 4,
                "time_elapsed": 30550,
                "plugin_version": "2.1.0",
                "failed_questions": [],
                "resume_trial_index": 4,
                "experiment_has_been_resumed": false,
                "experiment_definition_version": "not specified"
            },
            {
                "success": true,
                "timeout": false,
                "trial_type": "preload",
                "trial_index": 5,
                "failed_audio": [],
                "failed_video": [],
                "time_elapsed": 30762,
                "failed_images": [],
                "plugin_version": "2.1.0",
                "resume_trial_index": 5,
                "experiment_has_been_resumed": false,
                "experiment_definition_version": "not specified"
            },
            {
                "rt": 1462,
                "trial_type": "instructions",
                "trial_index": 6,
                "time_elapsed": 32262,
                "view_history": [
                    {
                        "page_index": 0,
                        "viewing_time": 1462
                    }
                ],
                "plugin_version": "2.1.0",
                "resume_trial_index": 6,
                "experiment_has_been_resumed": false,
                "experiment_definition_version": "not specified"
            },
            {
                "rt": 1036,
                "score": 1,
                "response": " ",
                "stimulus": "<h2>You <span style=\"color: var(--error);\">did not pass</span> the headphone check.</h2>\n                        <p>Please retry the test using some other headphones if they are available.</p>\n                        <p>Press [SPACE] to retry the headphone check.</p>",
                "task_type": "screening_summary",
                "trial_type": "html-keyboard-response",
                "do_not_save": false,
                "trial_index": 15,
                "time_elapsed": 69548,
                "plugin_version": "2.1.0",
                "resume_trial_index": 15,
                "screening_completed": false,
                "total_screening_trials": 6,
                "experiment_has_been_resumed": false,
                "experiment_definition_version": "not specified"
            },
            {
                "rt": 1026,
                "score": 0,
                "response": " ",
                "stimulus": "<h2>You <span style=\"color: var(--error);\">did not pass</span> the headphone check.</h2>\n                        <p>Please retry the test using some other headphones if they are available.</p>\n                        <p>Press [SPACE] to retry the headphone check.</p>",
                "task_type": "screening_summary",
                "trial_type": "html-keyboard-response",
                "do_not_save": false,
                "trial_index": 23,
                "time_elapsed": 125745,
                "plugin_version": "2.1.0",
                "resume_trial_index": 23,
                "screening_completed": false,
                "total_screening_trials": 12,
                "experiment_has_been_resumed": false,
                "experiment_definition_version": "not specified"
            },
            {
                "rt": 3103,
                "score": 2,
                "response": " ",
                "stimulus": "<h2> You <span style=\"color: var(--error);\">did not pass</span> the headphone check.</h2>\n                    <p> Press [SPACE] to quit the experiment and return to prolific.</p>",
                "task_type": "screening_summary",
                "trial_type": "html-keyboard-response",
                "do_not_save": false,
                "trial_index": 31,
                "time_elapsed": 158478,
                "plugin_version": "2.1.0",
                "early_termination": {
                    "abort": true,
                    "message": "<h4>You failed the headphone screening the maximum allowed number of times and are therefore ineligible to participate.</h4><p>You will be redirected to Prolific in 3 seconds.</p>",
                    "completion_type": "HEADPHONE_FAIL"
                },
                "resume_trial_index": 30,
                "screening_completed": true,
                "total_screening_trials": 18,
                "experiment_has_been_resumed": false,
                "experiment_definition_version": "not specified"
            },
            {
                "reason": "HEADPHONE_FAIL",
                "time_elapsed": 0,
                "early_termination": true
            }
        ],
        "jspsych_interaction_data": [],
        "jspsych_resume_trial_index": 30,
        "jspsych_max_timeline_length": 47,
        "jspsych_randomization_seed": "0.2655468466753912",
        "jspsych_experiment_complete": true
    },
    "12": {
        "user_id": "gn-as-dot-platform|9ed68611-b9a6-477e-9ace-f594eba5237e",
        "core_initial_visit": "2025-04-02 11:12:53.023566+00:00",
        "core_number_of_visits": 2,
        "core_last_updated": "2025-04-02 11:59:03.212601+00:00",
        "core_task_id": "Background noise rating",
        "jspsych_data": [
            {
                "rt": 251747,
                "trial_type": "instructions",
                "trial_index": 1,
                "time_elapsed": 251750,
                "view_history": [
                    {
                        "page_index": 0,
                        "viewing_time": 34260
                    },
                    {
                        "page_index": 1,
                        "viewing_time": 217481
                    }
                ],
                "plugin_version": "2.1.0",
                "resume_trial_index": 1,
                "experiment_has_been_resumed": false,
                "experiment_definition_version": "not specified"
            },
            {
                "rt": 9523,
                "response": 0,
                "stimulus": "<p>This study requires your informed consent before starting. Please click to review important information pertaining to your participation.</p>\n            <embed type=\"application/pdf\" src=\"/static/assets/doc/informedConsent.pdf\" height=\"700\" style=\"width: 100%; height: 100%; aspect-ratio: 3 / 2\"></embed>\n            <p>Once you have reviewed the document, indicate your choice below. If you do not consent, you will be redirected to prolific to return your submission.</p>",
                "trial_type": "html-button-response",
                "trial_index": 2,
                "time_elapsed": 261418,
                "plugin_version": "2.1.0",
                "resume_trial_index": 2,
                "experiment_has_been_resumed": false,
                "experiment_definition_version": "not specified"
            },
            {
                "rt": 2676,
                "trial_type": "instructions",
                "trial_index": 3,
                "time_elapsed": 264143,
                "view_history": [
                    {
                        "page_index": 0,
                        "viewing_time": 2676
                    }
                ],
                "plugin_version": "2.1.0",
                "resume_trial_index": 3,
                "experiment_has_been_resumed": false,
                "experiment_definition_version": "not specified"
            },
            {
                "rt": 72958,
                "response": {
                    "age": "35",
                    "gender": "Man (including Trans Male/Trans Man)",
                    "country": "Denmark",
                    "language": [
                        "English"
                    ],
                    "tinnitus": "No",
                    "hearing_loss": "No",
                    "headphone_style": "Over-the-ear"
                },
                "trial_type": "survey",
                "invalid_age": false,
                "trial_index": 4,
                "time_elapsed": 337274,
                "plugin_version": "2.1.0",
                "failed_questions": [],
                "resume_trial_index": 4,
                "experiment_has_been_resumed": false,
                "experiment_definition_version": "not specified"
            },
            {
                "success": true,
                "timeout": false,
                "trial_type": "preload",
                "trial_index": 5,
                "failed_audio": [],
                "failed_video": [],
                "time_elapsed": 337565,
                "failed_images": [],
                "plugin_version": "2.1.0",
                "resume_trial_index": 5,
                "experiment_has_been_resumed": false,
                "experiment_definition_version": "not specified"
            },
            {
                "rt": 72687,
                "trial_type": "instructions",
                "trial_index": 6,
                "time_elapsed": 410305,
                "view_history": [
                    {
                        "page_index": 0,
                        "viewing_time": 72687
                    }
                ],
                "plugin_version": "2.1.0",
                "resume_trial_index": 6,
                "experiment_has_been_resumed": false,
                "experiment_definition_version": "not specified"
            },
            {
                "rt": 2778,
                "score": 5,
                "response": " ",
                "stimulus": "<h2>Contratulations! You <span style=\"color: var(--success);\">passed</span> the headphone check.</h2>\n                        <p> Press [SPACE] to continue to the experiment. </p>",
                "task_type": "screening_summary",
                "trial_type": "html-keyboard-response",
                "do_not_save": false,
                "trial_index": 19,
                "time_elapsed": 228681,
                "plugin_version": "2.1.0",
                "resume_trial_index": 14,
                "screening_completed": true,
                "total_screening_trials": 6,
                "experiment_has_been_resumed": true,
                "experiment_definition_version": "not specified",
                "experiment_resumed_from_index": 6
            },
            {
                "rt": 7250,
                "trial_type": "instructions",
                "trial_index": 36,
                "time_elapsed": 236118,
                "view_history": [
                    {
                        "page_index": 0,
                        "viewing_time": 7249
                    }
                ],
                "plugin_version": "2.1.0",
                "resume_trial_index": 32,
                "experiment_has_been_resumed": true,
                "experiment_definition_version": "not specified",
                "experiment_resumed_from_index": 6
            },
            {
                "success": true,
                "timeout": false,
                "trial_type": "preload",
                "trial_index": 37,
                "failed_audio": [],
                "failed_video": [],
                "time_elapsed": 236171,
                "failed_images": [],
                "plugin_version": "2.1.0",
                "resume_trial_index": 33,
                "experiment_has_been_resumed": true,
                "experiment_definition_version": "not specified",
                "experiment_resumed_from_index": 6
            },
            {
                "rt": 141754,
                "trial_type": "instructions",
                "trial_index": 38,
                "time_elapsed": 377964,
                "view_history": [
                    {
                        "page_index": 0,
                        "viewing_time": 141754
                    }
                ],
                "plugin_version": "2.1.0",
                "resume_trial_index": 34,
                "experiment_has_been_resumed": true,
                "experiment_definition_version": "not specified",
                "experiment_resumed_from_index": 6
            },
            {
                "rt": 219964,
                "type": "tsm0",
                "anchor": "static/assets/wav/training/tsm/anchor.wav",
                "response": [
                    "5",
                    "10",
                    "14",
                    "8",
                    "100",
                    "15"
                ],
                "stimulus": [
                    "static/assets/wav/training/tsm/anchor.wav",
                    "static/assets/wav/training/tsm/nm.wav",
                    "static/assets/wav/training/tsm/hps.wav",
                    "static/assets/wav/training/tsm/tsmnet.wav",
                    "static/assets/wav/training/tsm/ref.wav",
                    "static/assets/wav/training/tsm/pv.wav",
                    "static/assets/wav/training/tsm/ref.wav"
                ],
                "ref_index": 4,
                "reference": "static/assets/wav/training/tsm/ref.wav",
                "task_type": "mushra_training",
                "trial_type": "multiple-stimuli-hidden-reference-anchor",
                "trial_index": 39,
                "time_elapsed": 731216,
                "trial_number": 0,
                "plugin_version": "2.0.0",
                "resume_trial_index": 35,
                "experiment_has_been_resumed": true,
                "experiment_definition_version": "not specified",
                "experiment_resumed_from_index": 6
            },
            {
                "rt": 147956,
                "type": "ps1",
                "anchor": "static/assets/wav/training/ps/anchor.wav",
                "response": [
                    "14",
                    "100",
                    "7",
                    "18",
                    "45"
                ],
                "stimulus": [
                    "static/assets/wav/training/ps/pvps.wav",
                    "static/assets/wav/training/ps/ref.wav",
                    "static/assets/wav/training/ps/nmps.wav",
                    "static/assets/wav/training/ps/librosaps.wav",
                    "static/assets/wav/training/ps/anchor.wav",
                    "static/assets/wav/training/ps/ref.wav"
                ],
                "ref_index": 1,
                "reference": "static/assets/wav/training/ps/ref.wav",
                "task_type": "mushra_training",
                "trial_type": "multiple-stimuli-hidden-reference-anchor",
                "trial_index": 40,
                "time_elapsed": 890749,
                "trial_number": 1,
                "plugin_version": "2.0.0",
                "resume_trial_index": 36,
                "experiment_has_been_resumed": true,
                "experiment_definition_version": "not specified",
                "experiment_resumed_from_index": 6
            },
            {
                "rt": 128347,
                "trial_type": "instructions",
                "trial_index": 41,
                "time_elapsed": 1019174,
                "view_history": [
                    {
                        "page_index": 0,
                        "viewing_time": 128347
                    }
                ],
                "plugin_version": "2.1.0",
                "resume_trial_index": 37,
                "experiment_has_been_resumed": true,
                "experiment_definition_version": "not specified",
                "experiment_resumed_from_index": 6
            },
            {
                "rt": 146004,
                "type": "ps7",
                "anchor": "static/assets/wav/tests/ps7/anchor.wav",
                "response": [
                    "67",
                    "100",
                    "15",
                    "32",
                    "50"
                ],
                "stimulus": [
                    "static/assets/wav/tests/ps7/pvps.wav",
                    "static/assets/wav/tests/ps7/ref.wav",
                    "static/assets/wav/tests/ps7/nmps.wav",
                    "static/assets/wav/tests/ps7/anchor.wav",
                    "static/assets/wav/tests/ps7/librosaps.wav",
                    "static/assets/wav/tests/ps7/ref.wav"
                ],
                "ref_index": 1,
                "reference": "static/assets/wav/tests/ps7/ref.wav",
                "task_type": "mushra_main_experiment",
                "trial_type": "multiple-stimuli-hidden-reference-anchor",
                "trial_index": 42,
                "time_elapsed": 1171845,
                "trial_number": "7",
                "plugin_version": "2.0.0",
                "resume_trial_index": 38,
                "experiment_has_been_resumed": true,
                "experiment_definition_version": "not specified",
                "experiment_resumed_from_index": 6
            },
            {
                "rt": 138204,
                "type": "ps1",
                "anchor": "static/assets/wav/tests/ps1/anchor.wav",
                "response": [
                    "33",
                    "47",
                    "100",
                    "56",
                    "65"
                ],
                "stimulus": [
                    "static/assets/wav/tests/ps1/nmps.wav",
                    "static/assets/wav/tests/ps1/librosaps.wav",
                    "static/assets/wav/tests/ps1/ref.wav",
                    "static/assets/wav/tests/ps1/anchor.wav",
                    "static/assets/wav/tests/ps1/pvps.wav",
                    "static/assets/wav/tests/ps1/ref.wav"
                ],
                "ref_index": 2,
                "reference": "static/assets/wav/tests/ps1/ref.wav",
                "task_type": "mushra_main_experiment",
                "trial_type": "multiple-stimuli-hidden-reference-anchor",
                "trial_index": 43,
                "time_elapsed": 1314393,
                "trial_number": "1",
                "plugin_version": "2.0.0",
                "resume_trial_index": 39,
                "experiment_has_been_resumed": true,
                "experiment_definition_version": "not specified",
                "experiment_resumed_from_index": 6
            },
            {
                "rt": 106945,
                "type": "ps-1",
                "anchor": "static/assets/wav/tests/ps-1/anchor.wav",
                "response": [
                    "51",
                    "45",
                    "40",
                    "82",
                    "100"
                ],
                "stimulus": [
                    "static/assets/wav/tests/ps-1/anchor.wav",
                    "static/assets/wav/tests/ps-1/librosaps.wav",
                    "static/assets/wav/tests/ps-1/nmps.wav",
                    "static/assets/wav/tests/ps-1/pvps.wav",
                    "static/assets/wav/tests/ps-1/ref.wav",
                    "static/assets/wav/tests/ps-1/ref.wav"
                ],
                "ref_index": 4,
                "reference": "static/assets/wav/tests/ps-1/ref.wav",
                "task_type": "mushra_main_experiment",
                "trial_type": "multiple-stimuli-hidden-reference-anchor",
                "trial_index": 44,
                "time_elapsed": 1428769,
                "trial_number": "-1",
                "plugin_version": "2.0.0",
                "resume_trial_index": 40,
                "experiment_has_been_resumed": true,
                "experiment_definition_version": "not specified",
                "experiment_resumed_from_index": 6
            },
            {
                "rt": 115964,
                "type": "ps-7",
                "anchor": "static/assets/wav/tests/ps-7/anchor.wav",
                "response": [
                    "100",
                    "23",
                    "18",
                    "38",
                    "36"
                ],
                "stimulus": [
                    "static/assets/wav/tests/ps-7/ref.wav",
                    "static/assets/wav/tests/ps-7/librosaps.wav",
                    "static/assets/wav/tests/ps-7/nmps.wav",
                    "static/assets/wav/tests/ps-7/anchor.wav",
                    "static/assets/wav/tests/ps-7/pvps.wav",
                    "static/assets/wav/tests/ps-7/ref.wav"
                ],
                "ref_index": 0,
                "reference": "static/assets/wav/tests/ps-7/ref.wav",
                "task_type": "mushra_main_experiment",
                "trial_type": "multiple-stimuli-hidden-reference-anchor",
                "trial_index": 45,
                "time_elapsed": 1553897,
                "trial_number": "-7",
                "plugin_version": "2.0.0",
                "resume_trial_index": 41,
                "experiment_has_been_resumed": true,
                "experiment_definition_version": "not specified",
                "experiment_resumed_from_index": 6
            },
            {
                "rt": 85894,
                "type": "ps3",
                "anchor": "static/assets/wav/tests/ps3/anchor.wav",
                "response": [
                    "28",
                    "79",
                    "59",
                    "23",
                    "100"
                ],
                "stimulus": [
                    "static/assets/wav/tests/ps3/nmps.wav",
                    "static/assets/wav/tests/ps3/pvps.wav",
                    "static/assets/wav/tests/ps3/librosaps.wav",
                    "static/assets/wav/tests/ps3/anchor.wav",
                    "static/assets/wav/tests/ps3/ref.wav",
                    "static/assets/wav/tests/ps3/ref.wav"
                ],
                "ref_index": 4,
                "reference": "static/assets/wav/tests/ps3/ref.wav",
                "task_type": "mushra_main_experiment",
                "trial_type": "multiple-stimuli-hidden-reference-anchor",
                "trial_index": 46,
                "time_elapsed": 1645638,
                "trial_number": "3",
                "plugin_version": "2.0.0",
                "resume_trial_index": 42,
                "experiment_has_been_resumed": true,
                "experiment_definition_version": "not specified",
                "experiment_resumed_from_index": 6
            },
            {
                "rt": 97964,
                "type": "tsm1.35",
                "anchor": "static/assets/wav/tests/tsm1.35/anchor.wav",
                "response": [
                    "38",
                    "29",
                    "47",
                    "26",
                    "100",
                    "17"
                ],
                "stimulus": [
                    "static/assets/wav/tests/tsm1.35/tsmnet.wav",
                    "static/assets/wav/tests/tsm1.35/anchor.wav",
                    "static/assets/wav/tests/tsm1.35/pv.wav",
                    "static/assets/wav/tests/tsm1.35/nm.wav",
                    "static/assets/wav/tests/tsm1.35/ref.wav",
                    "static/assets/wav/tests/tsm1.35/hps.wav",
                    "static/assets/wav/tests/tsm1.35/ref.wav"
                ],
                "ref_index": 4,
                "reference": "static/assets/wav/tests/tsm1.35/ref.wav",
                "task_type": "mushra_main_experiment",
                "trial_type": "multiple-stimuli-hidden-reference-anchor",
                "trial_index": 47,
                "time_elapsed": 1749314,
                "trial_number": "1.35",
                "plugin_version": "2.0.0",
                "resume_trial_index": 43,
                "experiment_has_been_resumed": true,
                "experiment_definition_version": "not specified",
                "experiment_resumed_from_index": 6
            },
            {
                "rt": 86076,
                "type": "tsm0.85",
                "anchor": "static/assets/wav/tests/tsm0.85/anchor.wav",
                "response": [
                    "43",
                    "57",
                    "67",
                    "100",
                    "80",
                    "74"
                ],
                "stimulus": [
                    "static/assets/wav/tests/tsm0.85/hps.wav",
                    "static/assets/wav/tests/tsm0.85/nm.wav",
                    "static/assets/wav/tests/tsm0.85/anchor.wav",
                    "static/assets/wav/tests/tsm0.85/ref.wav",
                    "static/assets/wav/tests/tsm0.85/pv.wav",
                    "static/assets/wav/tests/tsm0.85/tsmnet.wav",
                    "static/assets/wav/tests/tsm0.85/ref.wav"
                ],
                "ref_index": 3,
                "reference": "static/assets/wav/tests/tsm0.85/ref.wav",
                "task_type": "mushra_main_experiment",
                "trial_type": "multiple-stimuli-hidden-reference-anchor",
                "trial_index": 48,
                "time_elapsed": 1849751,
                "trial_number": "0.85",
                "plugin_version": "2.0.0",
                "resume_trial_index": 44,
                "experiment_has_been_resumed": true,
                "experiment_definition_version": "not specified",
                "experiment_resumed_from_index": 6
            },
            {
                "rt": 114366,
                "type": "tsm1.5",
                "anchor": "static/assets/wav/tests/tsm1.5/anchor.wav",
                "response": [
                    "22",
                    "100",
                    "27",
                    "18",
                    "71",
                    "39"
                ],
                "stimulus": [
                    "static/assets/wav/tests/tsm1.5/nm.wav",
                    "static/assets/wav/tests/tsm1.5/ref.wav",
                    "static/assets/wav/tests/tsm1.5/hps.wav",
                    "static/assets/wav/tests/tsm1.5/anchor.wav",
                    "static/assets/wav/tests/tsm1.5/pv.wav",
                    "static/assets/wav/tests/tsm1.5/tsmnet.wav",
                    "static/assets/wav/tests/tsm1.5/ref.wav"
                ],
                "ref_index": 1,
                "reference": "static/assets/wav/tests/tsm1.5/ref.wav",
                "task_type": "mushra_main_experiment",
                "trial_type": "multiple-stimuli-hidden-reference-anchor",
                "trial_index": 49,
                "time_elapsed": 1973647,
                "trial_number": "1.5",
                "plugin_version": "2.0.0",
                "resume_trial_index": 45,
                "experiment_has_been_resumed": true,
                "experiment_definition_version": "not specified",
                "experiment_resumed_from_index": 6
            },
            {
                "rt": 125454,
                "type": "tsm0.75",
                "anchor": "static/assets/wav/tests/tsm0.75/anchor.wav",
                "response": [
                    "35",
                    "72",
                    "100",
                    "43",
                    "79",
                    "90"
                ],
                "stimulus": [
                    "static/assets/wav/tests/tsm0.75/tsmnet.wav",
                    "static/assets/wav/tests/tsm0.75/nm.wav",
                    "static/assets/wav/tests/tsm0.75/ref.wav",
                    "static/assets/wav/tests/tsm0.75/anchor.wav",
                    "static/assets/wav/tests/tsm0.75/hps.wav",
                    "static/assets/wav/tests/tsm0.75/pv.wav",
                    "static/assets/wav/tests/tsm0.75/ref.wav"
                ],
                "ref_index": 2,
                "reference": "static/assets/wav/tests/tsm0.75/ref.wav",
                "task_type": "mushra_main_experiment",
                "trial_type": "multiple-stimuli-hidden-reference-anchor",
                "trial_index": 50,
                "time_elapsed": 2107826,
                "trial_number": "0.75",
                "plugin_version": "2.0.0",
                "resume_trial_index": 46,
                "experiment_has_been_resumed": true,
                "experiment_definition_version": "not specified",
                "experiment_resumed_from_index": 6
            },
            {
                "rt": 126886,
                "type": "tsm1.25",
                "anchor": "static/assets/wav/tests/tsm1.25/anchor.wav",
                "response": [
                    "44",
